participant,blocknum,blockcode,trialnum,trialcode,response,correct,latency,stimuli,Condition,block.type,block
4,10,Lattebad,2,goodright,23,1,1282,stupendo,DGMB,practice,practiceMilkBad
4,10,Lattebad,4,fondenteright,23,1,1299,fond3,DGMB,practice,practiceMilkBad
4,10,Lattebad,6,goodright,23,1,1435,meraviglioso,DGMB,practice,practiceMilkBad
4,10,Lattebad,8,fondenteright,23,1,1089,fond4,DGMB,practice,practiceMilkBad
4,10,Lattebad,10,goodright,23,1,967,ridere,DGMB,practice,practiceMilkBad
4,10,Lattebad,12,fondenteright,23,1,648,fond5,DGMB,practice,practiceMilkBad
4,10,Lattebad,14,goodright,23,1,967,eccellente,DGMB,practice,practiceMilkBad
4,10,Lattebad,16,fondenteright,23,1,615,fond2,DGMB,practice,practiceMilkBad
4,10,Lattebad,18,goodright,23,1,729,pace,DGMB,practice,practiceMilkBad
4,10,Lattebad,20,latteleft,18,1,642,latte7,DGMB,practice,practiceMilkBad
4,10,Lattebad,22,goodright,23,1,763,piacere,DGMB,practice,practiceMilkBad
4,10,Lattebad,24,latteleft,18,1,1288,latte3,DGMB,practice,practiceMilkBad
4,10,Lattebad,26,badleft,18,1,1006,disastro,DGMB,practice,practiceMilkBad
4,10,Lattebad,28,fondenteright,23,1,838,fond7,DGMB,practice,practiceMilkBad
4,10,Lattebad,30,badleft,18,1,1013,fastidioso,DGMB,practice,practiceMilkBad
4,10,Lattebad,32,latteleft,18,1,1414,latte6,DGMB,practice,practiceMilkBad
4,10,Lattebad,34,goodright,23,1,1542,gioia,DGMB,practice,practiceMilkBad
4,10,Lattebad,36,latteleft,18,1,1265,latte1,DGMB,practice,practiceMilkBad
4,10,Lattebad,38,goodright,23,1,924,felicità,DGMB,practice,practiceMilkBad
4,10,Lattebad,40,fondenteright,23,1,1674,fond1,DGMB,practice,practiceMilkBad
4,10,Lattebad,43,fondenteright,23,1,1161,fond6,DGMB,test,testMilkBad
4,10,Lattebad,45,goodright,23,1,1088,bello,DGMB,test,testMilkBad
4,10,Lattebad,47,latteleft,18,1,1400,latte5,DGMB,test,testMilkBad
4,10,Lattebad,49,badleft,18,1,990,dolore,DGMB,test,testMilkBad
4,10,Lattebad,51,latteleft,18,1,2369,latte4,DGMB,test,testMilkBad
4,10,Lattebad,53,badleft,18,1,886,agonia,DGMB,test,testMilkBad
4,10,Lattebad,55,latteleft,18,1,790,latte2,DGMB,test,testMilkBad
4,10,Lattebad,57,goodright,23,1,963,amore,DGMB,test,testMilkBad
4,10,Lattebad,59,latteleft,18,1,889,latte6,DGMB,test,testMilkBad
4,10,Lattebad,61,goodright,23,1,1215,gloria,DGMB,test,testMilkBad
4,10,Lattebad,63,latteleft,18,1,776,latte2,DGMB,test,testMilkBad
4,10,Lattebad,65,badleft,18,1,1089,nocivo,DGMB,test,testMilkBad
4,10,Lattebad,67,latteleft,18,1,866,latte7,DGMB,test,testMilkBad
4,10,Lattebad,69,badleft,18,1,1134,fallimento,DGMB,test,testMilkBad
4,10,Lattebad,71,fondenteright,23,1,822,fond5,DGMB,test,testMilkBad
4,10,Lattebad,73,badleft,18,1,1431,orribile,DGMB,test,testMilkBad
4,10,Lattebad,75,fondenteright,23,1,1026,fond6,DGMB,test,testMilkBad
4,10,Lattebad,77,badleft,18,1,814,brutto,DGMB,test,testMilkBad
4,10,Lattebad,79,fondenteright,23,1,1159,fond1,DGMB,test,testMilkBad
4,10,Lattebad,81,goodright,23,1,1229,buono,DGMB,test,testMilkBad
4,10,Lattebad,83,fondenteright,23,1,1153,fond2,DGMB,test,testMilkBad
4,10,Lattebad,85,goodright,23,1,1108,paradiso,DGMB,test,testMilkBad
4,10,Lattebad,87,fondenteright,23,1,639,fond4,DGMB,test,testMilkBad
4,10,Lattebad,89,badleft,18,1,686,schifo,DGMB,test,testMilkBad
4,10,Lattebad,91,latteleft,18,1,831,latte3,DGMB,test,testMilkBad
4,10,Lattebad,93,badleft,18,1,915,cattivo,DGMB,test,testMilkBad
4,10,Lattebad,95,latteleft,18,1,881,latte5,DGMB,test,testMilkBad
4,10,Lattebad,97,badleft,18,1,1416,terribile,DGMB,test,testMilkBad
4,10,Lattebad,99,fondenteright,23,1,792,fond3,DGMB,test,testMilkBad
4,10,Lattebad,101,goodright,23,1,1500,pace,DGMB,test,testMilkBad
4,10,Lattebad,103,latteleft,18,1,663,latte1,DGMB,test,testMilkBad
4,10,Lattebad,105,badleft,18,1,915,male,DGMB,test,testMilkBad
4,10,Lattebad,107,latteleft,18,1,689,latte4,DGMB,test,testMilkBad
4,10,Lattebad,109,goodright,23,1,802,paradiso,DGMB,test,testMilkBad
4,10,Lattebad,111,latteleft,18,1,2169,latte6,DGMB,test,testMilkBad
4,10,Lattebad,113,badleft,18,1,645,odio,DGMB,test,testMilkBad
4,10,Lattebad,115,fondenteright,23,1,823,fond7,DGMB,test,testMilkBad
4,10,Lattebad,117,badleft,18,1,699,odio,DGMB,test,testMilkBad
4,10,Lattebad,119,fondenteright,23,1,695,fond2,DGMB,test,testMilkBad
4,10,Lattebad,121,badleft,18,1,704,schifo,DGMB,test,testMilkBad
4,14,Fondentebad,2,badleft,18,1,1153,nocivo,MGDB,practice,practiceMilkGood
4,14,Fondentebad,4,latteright,23,1,895,latte3,MGDB,practice,practiceMilkGood
4,14,Fondentebad,6,badleft,18,1,872,schifo,MGDB,practice,practiceMilkGood
4,14,Fondentebad,8,fondenteleft,18,1,799,fond6,MGDB,practice,practiceMilkGood
4,14,Fondentebad,10,badleft,18,1,893,fastidioso,MGDB,practice,practiceMilkGood
4,14,Fondentebad,12,fondenteleft,18,1,1326,fond5,MGDB,practice,practiceMilkGood
4,14,Fondentebad,14,goodright,23,1,716,felicità,MGDB,practice,practiceMilkGood
4,14,Fondentebad,16,latteright,23,1,1264,latte6,MGDB,practice,practiceMilkGood
4,14,Fondentebad,18,goodright,23,1,747,ridere,MGDB,practice,practiceMilkGood
4,14,Fondentebad,20,fondenteleft,18,1,631,fond3,MGDB,practice,practiceMilkGood
4,14,Fondentebad,22,badleft,18,1,1139,agonia,MGDB,practice,practiceMilkGood
4,14,Fondentebad,24,latteright,23,1,934,latte5,MGDB,practice,practiceMilkGood
4,14,Fondentebad,26,badleft,18,1,816,cattivo,MGDB,practice,practiceMilkGood
4,14,Fondentebad,28,latteright,23,1,1057,latte7,MGDB,practice,practiceMilkGood
4,14,Fondentebad,30,goodright,23,1,810,amore,MGDB,practice,practiceMilkGood
4,14,Fondentebad,32,latteright,23,1,603,latte2,MGDB,practice,practiceMilkGood
4,14,Fondentebad,34,badleft,18,1,650,odio,MGDB,practice,practiceMilkGood
4,14,Fondentebad,36,latteright,23,1,995,latte1,MGDB,practice,practiceMilkGood
4,14,Fondentebad,38,badleft,18,1,735,terribile,MGDB,practice,practiceMilkGood
4,14,Fondentebad,40,fondenteleft,18,1,744,fond1,MGDB,practice,practiceMilkGood
4,14,Fondentebad,43,fondenteleft,18,1,1037,fond2,MGDB,test,testMilkGood
4,14,Fondentebad,45,goodright,23,1,675,pace,MGDB,test,testMilkGood
4,14,Fondentebad,47,latteright,23,1,1073,latte4,MGDB,test,testMilkGood
4,14,Fondentebad,49,badleft,18,1,749,dolore,MGDB,test,testMilkGood
4,14,Fondentebad,51,latteright,23,1,593,latte4,MGDB,test,testMilkGood
4,14,Fondentebad,53,goodright,23,1,853,paradiso,MGDB,test,testMilkGood
4,14,Fondentebad,55,fondenteleft,18,1,934,fond7,MGDB,test,testMilkGood
4,14,Fondentebad,57,badleft,18,1,695,male,MGDB,test,testMilkGood
4,14,Fondentebad,59,latteright,23,1,633,latte5,MGDB,test,testMilkGood
4,14,Fondentebad,61,goodright,23,1,837,meraviglioso,MGDB,test,testMilkGood
4,14,Fondentebad,63,fondenteleft,18,1,675,fond4,MGDB,test,testMilkGood
4,14,Fondentebad,65,goodright,23,1,655,buono,MGDB,test,testMilkGood
4,14,Fondentebad,67,latteright,23,1,753,latte7,MGDB,test,testMilkGood
4,14,Fondentebad,69,goodright,23,1,613,gioia,MGDB,test,testMilkGood
4,14,Fondentebad,71,fondenteleft,18,1,534,fond4,MGDB,test,testMilkGood
4,14,Fondentebad,73,goodright,23,1,800,bello,MGDB,test,testMilkGood
4,14,Fondentebad,75,latteright,23,1,622,latte2,MGDB,test,testMilkGood
4,14,Fondentebad,77,goodright,23,1,722,gloria,MGDB,test,testMilkGood
4,14,Fondentebad,79,fondenteleft,18,1,833,fond5,MGDB,test,testMilkGood
4,14,Fondentebad,81,badleft,18,1,869,fallimento,MGDB,test,testMilkGood
4,14,Fondentebad,83,fondenteleft,18,1,553,fond2,MGDB,test,testMilkGood
4,14,Fondentebad,85,badleft,18,1,757,brutto,MGDB,test,testMilkGood
4,14,Fondentebad,87,fondenteleft,18,1,491,fond1,MGDB,test,testMilkGood
4,14,Fondentebad,89,badleft,18,1,637,orribile,MGDB,test,testMilkGood
4,14,Fondentebad,91,latteright,23,1,524,latte3,MGDB,test,testMilkGood
4,14,Fondentebad,93,goodright,23,1,667,piacere,MGDB,test,testMilkGood
4,14,Fondentebad,95,fondenteleft,18,1,583,fond3,MGDB,test,testMilkGood
4,14,Fondentebad,97,goodright,23,1,531,stupendo,MGDB,test,testMilkGood
4,14,Fondentebad,99,fondenteleft,18,1,749,fond6,MGDB,test,testMilkGood
4,14,Fondentebad,101,badleft,18,1,1281,disastro,MGDB,test,testMilkGood
4,14,Fondentebad,103,latteright,23,1,975,latte6,MGDB,test,testMilkGood
4,14,Fondentebad,105,badleft,18,1,656,brutto,MGDB,test,testMilkGood
4,14,Fondentebad,107,fondenteleft,18,1,673,fond7,MGDB,test,testMilkGood
4,14,Fondentebad,109,goodright,23,1,821,eccellente,MGDB,test,testMilkGood
4,14,Fondentebad,111,fondenteleft,18,1,601,fond7,MGDB,test,testMilkGood
4,14,Fondentebad,113,badleft,18,1,656,fallimento,MGDB,test,testMilkGood
4,14,Fondentebad,115,latteright,23,1,721,latte1,MGDB,test,testMilkGood
4,14,Fondentebad,117,goodright,23,1,1088,gloria,MGDB,test,testMilkGood
4,14,Fondentebad,119,latteright,23,1,800,latte7,MGDB,test,testMilkGood
4,14,Fondentebad,121,goodright,23,1,575,pace,MGDB,test,testMilkGood
6,10,Fondentebad,2,badleft,18,1,729,disastro,MGDB,practice,practiceMilkGood
6,10,Fondentebad,4,latteright,23,1,754,latte4,MGDB,practice,practiceMilkGood
6,10,Fondentebad,6,goodright,23,1,590,piacere,MGDB,practice,practiceMilkGood
6,10,Fondentebad,8,latteright,23,1,578,latte7,MGDB,practice,practiceMilkGood
6,10,Fondentebad,10,badleft,18,1,524,odio,MGDB,practice,practiceMilkGood
6,10,Fondentebad,12,fondenteleft,18,1,578,fond1,MGDB,practice,practiceMilkGood
6,10,Fondentebad,14,badleft,18,1,572,brutto,MGDB,practice,practiceMilkGood
6,10,Fondentebad,16,latteright,23,1,598,latte2,MGDB,practice,practiceMilkGood
6,10,Fondentebad,18,goodright,23,1,629,eccellente,MGDB,practice,practiceMilkGood
6,10,Fondentebad,20,latteright,23,1,681,latte6,MGDB,practice,practiceMilkGood
6,10,Fondentebad,22,goodright,23,1,608,paradiso,MGDB,practice,practiceMilkGood
6,10,Fondentebad,24,fondenteleft,18,1,521,fond2,MGDB,practice,practiceMilkGood
6,10,Fondentebad,26,goodright,23,1,720,stupendo,MGDB,practice,practiceMilkGood
6,10,Fondentebad,28,fondenteleft,18,1,647,fond3,MGDB,practice,practiceMilkGood
6,10,Fondentebad,30,goodright,23,1,653,gioia,MGDB,practice,practiceMilkGood
6,10,Fondentebad,32,latteright,23,1,599,latte1,MGDB,practice,practiceMilkGood
6,10,Fondentebad,34,badleft,18,1,550,fallimento,MGDB,practice,practiceMilkGood
6,10,Fondentebad,36,fondenteleft,18,1,434,fond6,MGDB,practice,practiceMilkGood
6,10,Fondentebad,38,goodright,23,1,614,felicità,MGDB,practice,practiceMilkGood
6,10,Fondentebad,40,fondenteleft,18,1,632,fond4,MGDB,practice,practiceMilkGood
6,10,Fondentebad,43,latteright,23,1,505,latte5,MGDB,test,testMilkGood
6,10,Fondentebad,45,badleft,18,1,517,agonia,MGDB,test,testMilkGood
6,10,Fondentebad,47,latteright,23,1,572,latte3,MGDB,test,testMilkGood
6,10,Fondentebad,49,badleft,18,1,502,schifo,MGDB,test,testMilkGood
6,10,Fondentebad,51,fondenteleft,18,1,770,fond7,MGDB,test,testMilkGood
6,10,Fondentebad,53,badleft,18,1,675,orribile,MGDB,test,testMilkGood
6,10,Fondentebad,55,fondenteleft,18,1,402,fond5,MGDB,test,testMilkGood
6,10,Fondentebad,57,goodright,23,1,577,ridere,MGDB,test,testMilkGood
6,10,Fondentebad,59,fondenteleft,18,1,570,fond3,MGDB,test,testMilkGood
6,10,Fondentebad,61,badleft,18,1,572,cattivo,MGDB,test,testMilkGood
6,10,Fondentebad,63,fondenteleft,18,1,510,fond7,MGDB,test,testMilkGood
6,10,Fondentebad,65,goodright,23,1,514,gloria,MGDB,test,testMilkGood
6,10,Fondentebad,67,latteright,23,1,585,latte3,MGDB,test,testMilkGood
6,10,Fondentebad,69,goodright,23,1,533,bello,MGDB,test,testMilkGood
6,10,Fondentebad,71,fondenteleft,18,1,559,fond4,MGDB,test,testMilkGood
6,10,Fondentebad,73,badleft,18,1,622,fastidioso,MGDB,test,testMilkGood
6,10,Fondentebad,75,latteright,23,1,698,latte6,MGDB,test,testMilkGood
6,10,Fondentebad,77,badleft,18,1,587,dolore,MGDB,test,testMilkGood
6,10,Fondentebad,79,fondenteleft,18,1,543,fond6,MGDB,test,testMilkGood
6,10,Fondentebad,81,badleft,18,1,844,nocivo,MGDB,test,testMilkGood
6,10,Fondentebad,83,latteright,23,1,530,latte7,MGDB,test,testMilkGood
6,10,Fondentebad,85,goodright,23,1,660,pace,MGDB,test,testMilkGood
6,10,Fondentebad,87,fondenteleft,18,1,592,fond1,MGDB,test,testMilkGood
6,10,Fondentebad,89,badleft,18,1,572,terribile,MGDB,test,testMilkGood
6,10,Fondentebad,91,latteright,23,1,558,latte1,MGDB,test,testMilkGood
6,10,Fondentebad,93,badleft,18,1,581,male,MGDB,test,testMilkGood
6,10,Fondentebad,95,latteright,23,1,593,latte4,MGDB,test,testMilkGood
6,10,Fondentebad,97,badleft,18,1,469,fallimento,MGDB,test,testMilkGood
6,10,Fondentebad,99,fondenteleft,18,1,1361,fond2,MGDB,test,testMilkGood
6,10,Fondentebad,101,goodright,23,1,663,meraviglioso,MGDB,test,testMilkGood
6,10,Fondentebad,103,latteright,23,1,539,latte5,MGDB,test,testMilkGood
6,10,Fondentebad,105,goodright,23,1,597,buono,MGDB,test,testMilkGood
6,10,Fondentebad,107,fondenteleft,18,1,467,fond5,MGDB,test,testMilkGood
6,10,Fondentebad,109,goodright,23,1,520,amore,MGDB,test,testMilkGood
6,10,Fondentebad,111,latteright,23,1,471,latte2,MGDB,test,testMilkGood
6,10,Fondentebad,113,badleft,18,1,531,nocivo,MGDB,test,testMilkGood
6,10,Fondentebad,115,latteright,23,1,557,latte7,MGDB,test,testMilkGood
6,10,Fondentebad,117,goodright,23,1,668,stupendo,MGDB,test,testMilkGood
6,10,Fondentebad,119,fondenteleft,18,1,464,fond3,MGDB,test,testMilkGood
6,10,Fondentebad,121,goodright,23,1,508,ridere,MGDB,test,testMilkGood
6,14,Lattebad,2,badleft,18,1,1547,orribile,DGMB,practice,practiceMilkBad
6,14,Lattebad,4,fondenteright,23,1,798,fond2,DGMB,practice,practiceMilkBad
6,14,Lattebad,6,badleft,18,1,772,brutto,DGMB,practice,practiceMilkBad
6,14,Lattebad,8,fondenteright,23,1,1406,fond7,DGMB,practice,practiceMilkBad
6,14,Lattebad,10,goodright,18,0,1299,felicità,DGMB,practice,practiceMilkBad
6,14,Lattebad,12,latteleft,18,1,2126,latte2,DGMB,practice,practiceMilkBad
6,14,Lattebad,14,goodright,23,1,875,gioia,DGMB,practice,practiceMilkBad
6,14,Lattebad,16,latteleft,18,1,1153,latte7,DGMB,practice,practiceMilkBad
6,14,Lattebad,18,badleft,18,1,1077,terribile,DGMB,practice,practiceMilkBad
6,14,Lattebad,20,latteleft,18,1,1315,latte3,DGMB,practice,practiceMilkBad
6,14,Lattebad,22,goodright,23,1,1166,amore,DGMB,practice,practiceMilkBad
6,14,Lattebad,24,latteleft,18,1,998,latte1,DGMB,practice,practiceMilkBad
6,14,Lattebad,26,badleft,18,1,1869,odio,DGMB,practice,practiceMilkBad
6,14,Lattebad,28,latteleft,18,1,2327,latte4,DGMB,practice,practiceMilkBad
6,14,Lattebad,30,badleft,18,1,1035,schifo,DGMB,practice,practiceMilkBad
6,14,Lattebad,32,latteleft,18,1,841,latte5,DGMB,practice,practiceMilkBad
6,14,Lattebad,34,goodright,23,1,760,stupendo,DGMB,practice,practiceMilkBad
6,14,Lattebad,36,fondenteright,23,1,606,fond6,DGMB,practice,practiceMilkBad
6,14,Lattebad,38,badleft,18,1,997,cattivo,DGMB,practice,practiceMilkBad
6,14,Lattebad,40,fondenteright,23,1,667,fond3,DGMB,practice,practiceMilkBad
6,14,Lattebad,43,fondenteright,23,1,1242,fond4,DGMB,test,testMilkBad
6,14,Lattebad,45,badleft,18,1,936,fallimento,DGMB,test,testMilkBad
6,14,Lattebad,47,latteleft,18,1,1681,latte6,DGMB,test,testMilkBad
6,14,Lattebad,49,goodright,23,1,678,ridere,DGMB,test,testMilkBad
6,14,Lattebad,51,fondenteright,18,0,725,fond1,DGMB,test,testMilkBad
6,14,Lattebad,53,goodright,23,1,1252,eccellente,DGMB,test,testMilkBad
6,14,Lattebad,55,latteleft,18,1,748,latte6,DGMB,test,testMilkBad
6,14,Lattebad,57,badleft,18,1,592,disastro,DGMB,test,testMilkBad
6,14,Lattebad,59,fondenteright,23,1,791,fond5,DGMB,test,testMilkBad
6,14,Lattebad,61,goodright,23,1,1139,piacere,DGMB,test,testMilkBad
6,14,Lattebad,63,fondenteright,23,1,702,fond5,DGMB,test,testMilkBad
6,14,Lattebad,65,goodright,18,0,1239,paradiso,DGMB,test,testMilkBad
6,14,Lattebad,67,latteleft,18,1,1437,latte5,DGMB,test,testMilkBad
6,14,Lattebad,69,badleft,18,1,1003,agonia,DGMB,test,testMilkBad
6,14,Lattebad,71,latteleft,18,1,1337,latte7,DGMB,test,testMilkBad
6,14,Lattebad,73,goodright,23,1,793,buono,DGMB,test,testMilkBad
6,14,Lattebad,75,latteleft,18,1,815,latte3,DGMB,test,testMilkBad
6,14,Lattebad,77,badleft,18,1,1329,fastidioso,DGMB,test,testMilkBad
6,14,Lattebad,79,fondenteright,23,1,657,fond4,DGMB,test,testMilkBad
6,14,Lattebad,81,goodright,23,1,723,bello,DGMB,test,testMilkBad
6,14,Lattebad,83,latteleft,23,0,777,latte4,DGMB,test,testMilkBad
6,14,Lattebad,85,goodright,23,1,1146,meraviglioso,DGMB,test,testMilkBad
6,14,Lattebad,87,fondenteright,18,0,838,fond3,DGMB,test,testMilkBad
6,14,Lattebad,89,goodright,23,1,2588,pace,DGMB,test,testMilkBad
6,14,Lattebad,91,fondenteright,23,1,909,fond2,DGMB,test,testMilkBad
6,14,Lattebad,93,badleft,18,1,1145,nocivo,DGMB,test,testMilkBad
6,14,Lattebad,95,latteleft,18,1,916,latte2,DGMB,test,testMilkBad
6,14,Lattebad,97,badleft,18,1,1019,dolore,DGMB,test,testMilkBad
6,14,Lattebad,99,fondenteright,23,1,1006,fond7,DGMB,test,testMilkBad
6,14,Lattebad,101,goodright,23,1,1466,gloria,DGMB,test,testMilkBad
6,14,Lattebad,103,latteleft,18,1,1941,latte1,DGMB,test,testMilkBad
6,14,Lattebad,105,badleft,18,1,2044,male,DGMB,test,testMilkBad
6,14,Lattebad,107,fondenteright,23,1,969,fond1,DGMB,test,testMilkBad
6,14,Lattebad,109,goodright,23,1,807,pace,DGMB,test,testMilkBad
6,14,Lattebad,111,fondenteright,23,1,760,fond6,DGMB,test,testMilkBad
6,14,Lattebad,113,badleft,18,1,727,cattivo,DGMB,test,testMilkBad
6,14,Lattebad,115,latteleft,18,1,1032,latte5,DGMB,test,testMilkBad
6,14,Lattebad,117,badleft,18,1,620,terribile,DGMB,test,testMilkBad
6,14,Lattebad,119,fondenteright,23,1,816,fond5,DGMB,test,testMilkBad
6,14,Lattebad,121,goodright,23,1,697,gloria,DGMB,test,testMilkBad
8,10,Fondentebad,2,goodright,18,0,1031,meraviglioso,MGDB,practice,practiceMilkGood
8,10,Fondentebad,4,latteright,23,1,1285,latte5,MGDB,practice,practiceMilkGood
8,10,Fondentebad,6,badleft,18,1,1939,orribile,MGDB,practice,practiceMilkGood
8,10,Fondentebad,8,fondenteleft,18,1,954,fond5,MGDB,practice,practiceMilkGood
8,10,Fondentebad,10,badleft,23,0,782,brutto,MGDB,practice,practiceMilkGood
8,10,Fondentebad,12,fondenteleft,18,1,1186,fond6,MGDB,practice,practiceMilkGood
8,10,Fondentebad,14,goodright,23,1,1221,felicità,MGDB,practice,practiceMilkGood
8,10,Fondentebad,16,latteright,23,1,752,latte7,MGDB,practice,practiceMilkGood
8,10,Fondentebad,18,badleft,18,1,724,schifo,MGDB,practice,practiceMilkGood
8,10,Fondentebad,20,latteright,23,1,733,latte2,MGDB,practice,practiceMilkGood
8,10,Fondentebad,22,badleft,18,1,919,fastidioso,MGDB,practice,practiceMilkGood
8,10,Fondentebad,24,fondenteleft,18,1,725,fond4,MGDB,practice,practiceMilkGood
8,10,Fondentebad,26,goodright,23,1,676,gioia,MGDB,practice,practiceMilkGood
8,10,Fondentebad,28,latteright,23,1,619,latte1,MGDB,practice,practiceMilkGood
8,10,Fondentebad,30,goodright,23,1,2052,paradiso,MGDB,practice,practiceMilkGood
8,10,Fondentebad,32,fondenteleft,18,1,635,fond2,MGDB,practice,practiceMilkGood
8,10,Fondentebad,34,goodright,23,1,935,gloria,MGDB,practice,practiceMilkGood
8,10,Fondentebad,36,latteright,23,1,584,latte3,MGDB,practice,practiceMilkGood
8,10,Fondentebad,38,badleft,18,1,653,agonia,MGDB,practice,practiceMilkGood
8,10,Fondentebad,40,fondenteleft,23,0,430,fond1,MGDB,practice,practiceMilkGood
8,10,Fondentebad,43,fondenteleft,18,1,800,fond7,MGDB,test,testMilkGood
8,10,Fondentebad,45,badleft,18,1,558,terribile,MGDB,test,testMilkGood
8,10,Fondentebad,47,latteright,23,1,469,latte4,MGDB,test,testMilkGood
8,10,Fondentebad,49,goodright,23,1,402,pace,MGDB,test,testMilkGood
8,10,Fondentebad,51,latteright,23,1,465,latte6,MGDB,test,testMilkGood
8,10,Fondentebad,53,badleft,18,1,661,cattivo,MGDB,test,testMilkGood
8,10,Fondentebad,55,latteright,23,1,521,latte5,MGDB,test,testMilkGood
8,10,Fondentebad,57,goodright,23,1,768,ridere,MGDB,test,testMilkGood
8,10,Fondentebad,59,latteright,23,1,489,latte3,MGDB,test,testMilkGood
8,10,Fondentebad,61,goodright,18,0,651,stupendo,MGDB,test,testMilkGood
8,10,Fondentebad,63,fondenteleft,18,1,940,fond3,MGDB,test,testMilkGood
8,10,Fondentebad,65,badleft,18,1,717,male,MGDB,test,testMilkGood
8,10,Fondentebad,67,fondenteleft,18,1,492,fond2,MGDB,test,testMilkGood
8,10,Fondentebad,69,badleft,18,1,678,disastro,MGDB,test,testMilkGood
8,10,Fondentebad,71,latteright,23,1,524,latte2,MGDB,test,testMilkGood
8,10,Fondentebad,73,badleft,23,0,580,odio,MGDB,test,testMilkGood
8,10,Fondentebad,75,fondenteleft,18,1,888,fond5,MGDB,test,testMilkGood
8,10,Fondentebad,77,goodright,23,1,742,amore,MGDB,test,testMilkGood
8,10,Fondentebad,79,latteright,23,1,1602,latte4,MGDB,test,testMilkGood
8,10,Fondentebad,81,goodright,23,1,703,bello,MGDB,test,testMilkGood
8,10,Fondentebad,83,fondenteleft,18,1,699,fond1,MGDB,test,testMilkGood
8,10,Fondentebad,85,badleft,18,1,509,fallimento,MGDB,test,testMilkGood
8,10,Fondentebad,87,latteright,23,1,465,latte6,MGDB,test,testMilkGood
8,10,Fondentebad,89,badleft,23,0,509,dolore,MGDB,test,testMilkGood
8,10,Fondentebad,91,latteright,23,1,890,latte1,MGDB,test,testMilkGood
8,10,Fondentebad,93,goodright,18,0,675,buono,MGDB,test,testMilkGood
8,10,Fondentebad,95,fondenteleft,18,1,1049,fond3,MGDB,test,testMilkGood
8,10,Fondentebad,97,goodright,23,1,986,eccellente,MGDB,test,testMilkGood
8,10,Fondentebad,99,fondenteleft,18,1,878,fond4,MGDB,test,testMilkGood
8,10,Fondentebad,101,badleft,18,1,692,nocivo,MGDB,test,testMilkGood
8,10,Fondentebad,103,fondenteleft,18,1,670,fond6,MGDB,test,testMilkGood
8,10,Fondentebad,105,goodright,23,1,674,piacere,MGDB,test,testMilkGood
8,10,Fondentebad,107,fondenteleft,18,1,744,fond7,MGDB,test,testMilkGood
8,10,Fondentebad,109,goodright,23,1,509,pace,MGDB,test,testMilkGood
8,10,Fondentebad,111,latteright,18,0,697,latte7,MGDB,test,testMilkGood
8,10,Fondentebad,113,goodright,18,0,1058,paradiso,MGDB,test,testMilkGood
8,10,Fondentebad,115,fondenteleft,18,1,1010,fond5,MGDB,test,testMilkGood
8,10,Fondentebad,117,badleft,18,1,1796,orribile,MGDB,test,testMilkGood
8,10,Fondentebad,119,latteright,23,1,609,latte1,MGDB,test,testMilkGood
8,10,Fondentebad,121,badleft,18,1,767,cattivo,MGDB,test,testMilkGood
8,14,Lattebad,2,goodright,23,1,827,amore,DGMB,practice,practiceMilkBad
8,14,Lattebad,4,latteleft,18,1,770,latte5,DGMB,practice,practiceMilkBad
8,14,Lattebad,6,goodright,18,0,963,eccellente,DGMB,practice,practiceMilkBad
8,14,Lattebad,8,latteleft,18,1,873,latte4,DGMB,practice,practiceMilkBad
8,14,Lattebad,10,badleft,23,0,421,fallimento,DGMB,practice,practiceMilkBad
8,14,Lattebad,12,latteleft,18,1,1497,latte3,DGMB,practice,practiceMilkBad
8,14,Lattebad,14,goodright,23,1,1842,stupendo,DGMB,practice,practiceMilkBad
8,14,Lattebad,16,latteleft,18,1,799,latte6,DGMB,practice,practiceMilkBad
8,14,Lattebad,18,goodright,23,1,821,felicità,DGMB,practice,practiceMilkBad
8,14,Lattebad,20,fondenteright,23,1,825,fond4,DGMB,practice,practiceMilkBad
8,14,Lattebad,22,badleft,23,0,1517,dolore,DGMB,practice,practiceMilkBad
8,14,Lattebad,24,fondenteright,23,1,810,fond5,DGMB,practice,practiceMilkBad
8,14,Lattebad,26,badleft,18,1,667,orribile,DGMB,practice,practiceMilkBad
8,14,Lattebad,28,latteleft,23,0,1079,latte7,DGMB,practice,practiceMilkBad
8,14,Lattebad,30,goodright,23,1,870,buono,DGMB,practice,practiceMilkBad
8,14,Lattebad,32,fondenteright,18,0,1057,fond2,DGMB,practice,practiceMilkBad
8,14,Lattebad,34,badleft,18,1,1850,fastidioso,DGMB,practice,practiceMilkBad
8,14,Lattebad,36,latteleft,18,1,706,latte2,DGMB,practice,practiceMilkBad
8,14,Lattebad,38,goodright,18,0,2950,meraviglioso,DGMB,practice,practiceMilkBad
8,14,Lattebad,40,latteleft,18,1,2742,latte1,DGMB,practice,practiceMilkBad
8,14,Lattebad,43,fondenteright,23,1,545,fond1,DGMB,test,testMilkBad
8,14,Lattebad,45,goodright,23,1,478,ridere,DGMB,test,testMilkBad
8,14,Lattebad,47,fondenteright,23,1,453,fond6,DGMB,test,testMilkBad
8,14,Lattebad,49,goodright,23,1,478,pace,DGMB,test,testMilkBad
8,14,Lattebad,51,fondenteright,23,1,453,fond3,DGMB,test,testMilkBad
8,14,Lattebad,53,goodright,23,1,471,gioia,DGMB,test,testMilkBad
8,14,Lattebad,55,latteleft,18,1,638,latte5,DGMB,test,testMilkBad
8,14,Lattebad,57,badleft,18,1,533,terribile,DGMB,test,testMilkBad
8,14,Lattebad,59,latteleft,18,1,446,latte3,DGMB,test,testMilkBad
8,14,Lattebad,61,badleft,18,1,493,brutto,DGMB,test,testMilkBad
8,14,Lattebad,63,latteleft,18,1,479,latte7,DGMB,test,testMilkBad
8,14,Lattebad,65,badleft,18,1,686,agonia,DGMB,test,testMilkBad
8,14,Lattebad,67,latteleft,18,1,456,latte4,DGMB,test,testMilkBad
8,14,Lattebad,69,badleft,18,1,562,disastro,DGMB,test,testMilkBad
8,14,Lattebad,71,fondenteright,23,1,720,fond7,DGMB,test,testMilkBad
8,14,Lattebad,73,goodright,23,1,879,gloria,DGMB,test,testMilkBad
8,14,Lattebad,75,fondenteright,23,1,725,fond3,DGMB,test,testMilkBad
8,14,Lattebad,77,badleft,18,1,684,male,DGMB,test,testMilkBad
8,14,Lattebad,79,fondenteright,23,1,562,fond4,DGMB,test,testMilkBad
8,14,Lattebad,81,badleft,18,1,1601,cattivo,DGMB,test,testMilkBad
8,14,Lattebad,83,fondenteright,23,1,631,fond6,DGMB,test,testMilkBad
8,14,Lattebad,85,badleft,18,1,579,nocivo,DGMB,test,testMilkBad
8,14,Lattebad,87,fondenteright,23,1,663,fond2,DGMB,test,testMilkBad
8,14,Lattebad,89,badleft,18,1,635,odio,DGMB,test,testMilkBad
8,14,Lattebad,91,latteleft,18,1,842,latte1,DGMB,test,testMilkBad
8,14,Lattebad,93,goodright,23,1,673,piacere,DGMB,test,testMilkBad
8,14,Lattebad,95,latteleft,18,1,743,latte6,DGMB,test,testMilkBad
8,14,Lattebad,97,badleft,18,1,747,schifo,DGMB,test,testMilkBad
8,14,Lattebad,99,fondenteright,23,1,487,fond5,DGMB,test,testMilkBad
8,14,Lattebad,101,badleft,18,1,782,terribile,DGMB,test,testMilkBad
8,14,Lattebad,103,fondenteright,23,1,746,fond1,DGMB,test,testMilkBad
8,14,Lattebad,105,goodright,23,1,1230,bello,DGMB,test,testMilkBad
8,14,Lattebad,107,latteleft,18,1,681,latte2,DGMB,test,testMilkBad
8,14,Lattebad,109,badleft,18,1,680,nocivo,DGMB,test,testMilkBad
8,14,Lattebad,111,fondenteright,23,1,599,fond7,DGMB,test,testMilkBad
8,14,Lattebad,113,goodright,23,1,1126,paradiso,DGMB,test,testMilkBad
8,14,Lattebad,115,fondenteright,23,1,630,fond6,DGMB,test,testMilkBad
8,14,Lattebad,117,goodright,23,1,602,gioia,DGMB,test,testMilkBad
8,14,Lattebad,119,latteleft,18,1,561,latte7,DGMB,test,testMilkBad
8,14,Lattebad,121,goodright,23,1,1184,stupendo,DGMB,test,testMilkBad
11,20,Lattebad,2,goodright,23,1,3202,gioia,DGMB,practice,practiceMilkBad
11,20,Lattebad,4,fondenteright,18,0,1156,fond2,DGMB,practice,practiceMilkBad
11,20,Lattebad,6,goodright,23,1,3203,felicità,DGMB,practice,practiceMilkBad
11,20,Lattebad,8,latteleft,18,1,1117,latte4,DGMB,practice,practiceMilkBad
11,20,Lattebad,10,badleft,18,1,1235,odio,DGMB,practice,practiceMilkBad
11,20,Lattebad,12,latteleft,18,1,1529,latte2,DGMB,practice,practiceMilkBad
11,20,Lattebad,14,goodright,23,1,1263,bello,DGMB,practice,practiceMilkBad
11,20,Lattebad,16,latteleft,18,1,746,latte7,DGMB,practice,practiceMilkBad
11,20,Lattebad,18,badleft,18,1,1206,dolore,DGMB,practice,practiceMilkBad
11,20,Lattebad,20,fondenteright,23,1,1142,fond3,DGMB,practice,practiceMilkBad
11,20,Lattebad,22,badleft,18,1,1184,schifo,DGMB,practice,practiceMilkBad
11,20,Lattebad,24,fondenteright,23,1,794,fond1,DGMB,practice,practiceMilkBad
11,20,Lattebad,26,goodright,23,1,870,buono,DGMB,practice,practiceMilkBad
11,20,Lattebad,28,latteleft,18,1,842,latte3,DGMB,practice,practiceMilkBad
11,20,Lattebad,30,goodright,23,1,2904,gloria,DGMB,practice,practiceMilkBad
11,20,Lattebad,32,fondenteright,23,1,1481,fond5,DGMB,practice,practiceMilkBad
11,20,Lattebad,34,badleft,18,1,623,terribile,DGMB,practice,practiceMilkBad
11,20,Lattebad,36,fondenteright,23,1,595,fond4,DGMB,practice,practiceMilkBad
11,20,Lattebad,38,badleft,23,0,1198,brutto,DGMB,practice,practiceMilkBad
11,20,Lattebad,40,latteleft,18,1,1989,latte5,DGMB,practice,practiceMilkBad
11,20,Lattebad,43,fondenteright,23,1,1303,fond7,DGMB,test,testMilkBad
11,20,Lattebad,45,badleft,23,0,538,male,DGMB,test,testMilkBad
11,20,Lattebad,47,latteleft,18,1,1815,latte6,DGMB,test,testMilkBad
11,20,Lattebad,49,goodright,23,1,630,paradiso,DGMB,test,testMilkBad
11,20,Lattebad,51,latteleft,18,1,642,latte1,DGMB,test,testMilkBad
11,20,Lattebad,53,badleft,18,1,2121,agonia,DGMB,test,testMilkBad
11,20,Lattebad,55,latteleft,18,1,1158,latte2,DGMB,test,testMilkBad
11,20,Lattebad,57,goodright,23,1,924,eccellente,DGMB,test,testMilkBad
11,20,Lattebad,59,latteleft,18,1,658,latte7,DGMB,test,testMilkBad
11,20,Lattebad,61,badleft,18,1,1148,orribile,DGMB,test,testMilkBad
11,20,Lattebad,63,fondenteright,23,1,1007,fond6,DGMB,test,testMilkBad
11,20,Lattebad,65,goodright,23,1,1045,pace,DGMB,test,testMilkBad
11,20,Lattebad,67,latteleft,18,1,734,latte3,DGMB,test,testMilkBad
11,20,Lattebad,69,badleft,18,1,768,disastro,DGMB,test,testMilkBad
11,20,Lattebad,71,fondenteright,23,1,1729,fond3,DGMB,test,testMilkBad
11,20,Lattebad,73,badleft,18,1,846,cattivo,DGMB,test,testMilkBad
11,20,Lattebad,75,latteleft,18,1,991,latte4,DGMB,test,testMilkBad
11,20,Lattebad,77,goodright,23,1,939,amore,DGMB,test,testMilkBad
11,20,Lattebad,79,fondenteright,18,0,702,fond5,DGMB,test,testMilkBad
11,20,Lattebad,81,goodright,23,1,1567,ridere,DGMB,test,testMilkBad
11,20,Lattebad,83,latteleft,18,1,695,latte5,DGMB,test,testMilkBad
11,20,Lattebad,85,badleft,18,1,785,fallimento,DGMB,test,testMilkBad
11,20,Lattebad,87,latteleft,18,1,1453,latte6,DGMB,test,testMilkBad
11,20,Lattebad,89,badleft,18,1,805,nocivo,DGMB,test,testMilkBad
11,20,Lattebad,91,latteleft,18,1,750,latte1,DGMB,test,testMilkBad
11,20,Lattebad,93,goodright,23,1,730,piacere,DGMB,test,testMilkBad
11,20,Lattebad,95,fondenteright,23,1,1155,fond1,DGMB,test,testMilkBad
11,20,Lattebad,97,goodright,23,1,1047,meraviglioso,DGMB,test,testMilkBad
11,20,Lattebad,99,fondenteright,23,1,543,fond2,DGMB,test,testMilkBad
11,20,Lattebad,101,badleft,18,1,1012,fastidioso,DGMB,test,testMilkBad
11,20,Lattebad,103,fondenteright,23,1,1077,fond7,DGMB,test,testMilkBad
11,20,Lattebad,105,goodright,23,1,1827,stupendo,DGMB,test,testMilkBad
11,20,Lattebad,107,fondenteright,23,1,1597,fond4,DGMB,test,testMilkBad
11,20,Lattebad,109,goodright,23,1,802,gloria,DGMB,test,testMilkBad
11,20,Lattebad,111,latteleft,18,1,577,latte6,DGMB,test,testMilkBad
11,20,Lattebad,113,goodright,23,1,1275,buono,DGMB,test,testMilkBad
11,20,Lattebad,115,fondenteright,23,1,992,fond6,DGMB,test,testMilkBad
11,20,Lattebad,117,badleft,18,1,2356,fallimento,DGMB,test,testMilkBad
11,20,Lattebad,119,fondenteright,23,1,1112,fond3,DGMB,test,testMilkBad
11,20,Lattebad,121,badleft,18,1,1067,dolore,DGMB,test,testMilkBad
11,24,Fondentebad,2,badleft,18,1,1002,disastro,MGDB,practice,practiceMilkGood
11,24,Fondentebad,4,fondenteleft,18,1,723,fond4,MGDB,practice,practiceMilkGood
11,24,Fondentebad,6,goodright,23,1,634,gloria,MGDB,practice,practiceMilkGood
11,24,Fondentebad,8,fondenteleft,18,1,664,fond5,MGDB,practice,practiceMilkGood
11,24,Fondentebad,10,badleft,18,1,812,fastidioso,MGDB,practice,practiceMilkGood
11,24,Fondentebad,12,latteright,23,1,669,latte4,MGDB,practice,practiceMilkGood
11,24,Fondentebad,14,badleft,18,1,890,odio,MGDB,practice,practiceMilkGood
11,24,Fondentebad,16,fondenteleft,18,1,635,fond3,MGDB,practice,practiceMilkGood
11,24,Fondentebad,18,goodright,23,1,935,meraviglioso,MGDB,practice,practiceMilkGood
11,24,Fondentebad,20,fondenteleft,18,1,584,fond6,MGDB,practice,practiceMilkGood
11,24,Fondentebad,22,badleft,18,1,644,orribile,MGDB,practice,practiceMilkGood
11,24,Fondentebad,24,latteright,23,1,557,latte5,MGDB,practice,practiceMilkGood
11,24,Fondentebad,26,badleft,18,1,757,male,MGDB,practice,practiceMilkGood
11,24,Fondentebad,28,fondenteleft,18,1,571,fond1,MGDB,practice,practiceMilkGood
11,24,Fondentebad,30,badleft,18,1,645,schifo,MGDB,practice,practiceMilkGood
11,24,Fondentebad,32,fondenteleft,18,1,542,fond7,MGDB,practice,practiceMilkGood
11,24,Fondentebad,34,badleft,23,0,610,brutto,MGDB,practice,practiceMilkGood
11,24,Fondentebad,36,latteright,23,1,860,latte2,MGDB,practice,practiceMilkGood
11,24,Fondentebad,38,goodright,23,1,509,gioia,MGDB,practice,practiceMilkGood
11,24,Fondentebad,40,latteright,23,1,401,latte3,MGDB,practice,practiceMilkGood
11,24,Fondentebad,43,fondenteleft,18,1,945,fond2,MGDB,test,testMilkGood
11,24,Fondentebad,45,badleft,18,1,580,dolore,MGDB,test,testMilkGood
11,24,Fondentebad,47,fondenteleft,18,1,569,fond3,MGDB,test,testMilkGood
11,24,Fondentebad,49,badleft,18,1,434,fallimento,MGDB,test,testMilkGood
11,24,Fondentebad,51,fondenteleft,18,1,393,fond7,MGDB,test,testMilkGood
11,24,Fondentebad,53,goodright,23,1,542,paradiso,MGDB,test,testMilkGood
11,24,Fondentebad,55,latteright,23,1,474,latte6,MGDB,test,testMilkGood
11,24,Fondentebad,57,badleft,18,1,591,nocivo,MGDB,test,testMilkGood
11,24,Fondentebad,59,fondenteleft,18,1,445,fond6,MGDB,test,testMilkGood
11,24,Fondentebad,61,goodright,23,1,508,piacere,MGDB,test,testMilkGood
11,24,Fondentebad,63,latteright,23,1,521,latte1,MGDB,test,testMilkGood
11,24,Fondentebad,65,goodright,23,1,536,buono,MGDB,test,testMilkGood
11,24,Fondentebad,67,fondenteleft,18,1,553,fond2,MGDB,test,testMilkGood
11,24,Fondentebad,69,goodright,23,1,814,amore,MGDB,test,testMilkGood
11,24,Fondentebad,71,fondenteleft,18,1,1015,fond5,MGDB,test,testMilkGood
11,24,Fondentebad,73,badleft,18,1,2472,terribile,MGDB,test,testMilkGood
11,24,Fondentebad,75,latteright,23,1,1217,latte7,MGDB,test,testMilkGood
11,24,Fondentebad,77,goodright,18,0,530,eccellente,MGDB,test,testMilkGood
11,24,Fondentebad,79,latteright,23,1,907,latte4,MGDB,test,testMilkGood
11,24,Fondentebad,81,badleft,18,1,623,agonia,MGDB,test,testMilkGood
11,24,Fondentebad,83,latteright,23,1,539,latte5,MGDB,test,testMilkGood
11,24,Fondentebad,85,goodright,23,1,517,pace,MGDB,test,testMilkGood
11,24,Fondentebad,87,fondenteleft,18,1,484,fond4,MGDB,test,testMilkGood
11,24,Fondentebad,89,goodright,23,1,922,stupendo,MGDB,test,testMilkGood
11,24,Fondentebad,91,latteright,18,0,681,latte7,MGDB,test,testMilkGood
11,24,Fondentebad,93,goodright,23,1,1656,bello,MGDB,test,testMilkGood
11,24,Fondentebad,95,latteright,23,1,760,latte6,MGDB,test,testMilkGood
11,24,Fondentebad,97,badleft,18,1,1046,cattivo,MGDB,test,testMilkGood
11,24,Fondentebad,99,latteright,23,1,671,latte2,MGDB,test,testMilkGood
11,24,Fondentebad,101,goodright,23,1,651,felicità,MGDB,test,testMilkGood
11,24,Fondentebad,103,latteright,23,1,869,latte3,MGDB,test,testMilkGood
11,24,Fondentebad,105,goodright,23,1,400,ridere,MGDB,test,testMilkGood
11,24,Fondentebad,107,latteright,23,1,415,latte1,MGDB,test,testMilkGood
11,24,Fondentebad,109,badleft,18,1,537,cattivo,MGDB,test,testMilkGood
11,24,Fondentebad,111,fondenteleft,18,1,461,fond1,MGDB,test,testMilkGood
11,24,Fondentebad,113,badleft,18,1,487,brutto,MGDB,test,testMilkGood
11,24,Fondentebad,115,latteright,23,1,729,latte6,MGDB,test,testMilkGood
11,24,Fondentebad,117,goodright,23,1,495,gioia,MGDB,test,testMilkGood
11,24,Fondentebad,119,fondenteleft,18,1,489,fond5,MGDB,test,testMilkGood
11,24,Fondentebad,121,goodright,23,1,563,piacere,MGDB,test,testMilkGood
14,20,Fondentebad,2,badleft,18,1,859,dolore,MGDB,practice,practiceMilkGood
14,20,Fondentebad,4,latteright,23,1,1399,latte5,MGDB,practice,practiceMilkGood
14,20,Fondentebad,6,goodright,23,1,788,bello,MGDB,practice,practiceMilkGood
14,20,Fondentebad,8,latteright,23,1,680,latte3,MGDB,practice,practiceMilkGood
14,20,Fondentebad,10,goodright,23,1,679,felicità,MGDB,practice,practiceMilkGood
14,20,Fondentebad,12,latteright,23,1,550,latte7,MGDB,practice,practiceMilkGood
14,20,Fondentebad,14,badleft,18,1,642,odio,MGDB,practice,practiceMilkGood
14,20,Fondentebad,16,fondenteleft,18,1,417,fond5,MGDB,practice,practiceMilkGood
14,20,Fondentebad,18,badleft,18,1,475,schifo,MGDB,practice,practiceMilkGood
14,20,Fondentebad,20,fondenteleft,18,1,410,fond2,MGDB,practice,practiceMilkGood
14,20,Fondentebad,22,goodright,23,1,499,gioia,MGDB,practice,practiceMilkGood
14,20,Fondentebad,24,latteright,23,1,647,latte4,MGDB,practice,practiceMilkGood
14,20,Fondentebad,26,badleft,18,1,767,fastidioso,MGDB,practice,practiceMilkGood
14,20,Fondentebad,28,fondenteleft,18,1,520,fond7,MGDB,practice,practiceMilkGood
14,20,Fondentebad,30,goodright,23,1,687,piacere,MGDB,practice,practiceMilkGood
14,20,Fondentebad,32,fondenteleft,18,1,560,fond3,MGDB,practice,practiceMilkGood
14,20,Fondentebad,34,goodright,23,1,543,buono,MGDB,practice,practiceMilkGood
14,20,Fondentebad,36,latteright,23,1,627,latte2,MGDB,practice,practiceMilkGood
14,20,Fondentebad,38,badleft,18,1,551,agonia,MGDB,practice,practiceMilkGood
14,20,Fondentebad,40,fondenteleft,18,1,446,fond6,MGDB,practice,practiceMilkGood
14,20,Fondentebad,43,latteright,23,1,823,latte1,MGDB,test,testMilkGood
14,20,Fondentebad,45,badleft,18,1,588,nocivo,MGDB,test,testMilkGood
14,20,Fondentebad,47,fondenteleft,18,1,520,fond1,MGDB,test,testMilkGood
14,20,Fondentebad,49,badleft,18,1,503,brutto,MGDB,test,testMilkGood
14,20,Fondentebad,51,fondenteleft,18,1,395,fond4,MGDB,test,testMilkGood
14,20,Fondentebad,53,badleft,18,1,415,cattivo,MGDB,test,testMilkGood
14,20,Fondentebad,55,latteright,23,1,449,latte6,MGDB,test,testMilkGood
14,20,Fondentebad,57,goodright,23,1,459,pace,MGDB,test,testMilkGood
14,20,Fondentebad,59,latteright,23,1,367,latte7,MGDB,test,testMilkGood
14,20,Fondentebad,61,goodright,23,1,743,gloria,MGDB,test,testMilkGood
14,20,Fondentebad,63,fondenteleft,18,1,458,fond7,MGDB,test,testMilkGood
14,20,Fondentebad,65,goodright,23,1,732,meraviglioso,MGDB,test,testMilkGood
14,20,Fondentebad,67,fondenteleft,18,1,485,fond3,MGDB,test,testMilkGood
14,20,Fondentebad,69,badleft,18,1,469,disastro,MGDB,test,testMilkGood
14,20,Fondentebad,71,fondenteleft,18,1,417,fond5,MGDB,test,testMilkGood
14,20,Fondentebad,73,badleft,18,1,675,orribile,MGDB,test,testMilkGood
14,20,Fondentebad,75,fondenteleft,18,1,345,fond2,MGDB,test,testMilkGood
14,20,Fondentebad,77,badleft,18,1,558,fallimento,MGDB,test,testMilkGood
14,20,Fondentebad,79,fondenteleft,18,1,405,fond4,MGDB,test,testMilkGood
14,20,Fondentebad,81,goodright,23,1,476,stupendo,MGDB,test,testMilkGood
14,20,Fondentebad,83,fondenteleft,18,1,467,fond1,MGDB,test,testMilkGood
14,20,Fondentebad,85,goodright,23,1,599,eccellente,MGDB,test,testMilkGood
14,20,Fondentebad,87,latteright,23,1,526,latte6,MGDB,test,testMilkGood
14,20,Fondentebad,89,badleft,18,1,765,male,MGDB,test,testMilkGood
14,20,Fondentebad,91,fondenteleft,18,1,622,fond6,MGDB,test,testMilkGood
14,20,Fondentebad,93,goodright,23,1,555,amore,MGDB,test,testMilkGood
14,20,Fondentebad,95,latteright,23,1,369,latte5,MGDB,test,testMilkGood
14,20,Fondentebad,97,goodright,23,1,771,paradiso,MGDB,test,testMilkGood
14,20,Fondentebad,99,latteright,23,1,373,latte3,MGDB,test,testMilkGood
14,20,Fondentebad,101,goodright,23,1,902,ridere,MGDB,test,testMilkGood
14,20,Fondentebad,103,latteright,23,1,314,latte4,MGDB,test,testMilkGood
14,20,Fondentebad,105,badleft,18,1,863,terribile,MGDB,test,testMilkGood
14,20,Fondentebad,107,latteright,23,1,811,latte2,MGDB,test,testMilkGood
14,20,Fondentebad,109,goodright,23,1,708,gioia,MGDB,test,testMilkGood
14,20,Fondentebad,111,fondenteleft,18,1,424,fond7,MGDB,test,testMilkGood
14,20,Fondentebad,113,goodright,23,1,1292,pace,MGDB,test,testMilkGood
14,20,Fondentebad,115,latteright,23,1,509,latte1,MGDB,test,testMilkGood
14,20,Fondentebad,117,badleft,18,1,641,nocivo,MGDB,test,testMilkGood
14,20,Fondentebad,119,latteright,23,1,520,latte5,MGDB,test,testMilkGood
14,20,Fondentebad,121,badleft,18,1,1175,disastro,MGDB,test,testMilkGood
14,24,Lattebad,2,badleft,18,1,1377,schifo,DGMB,practice,practiceMilkBad
14,24,Lattebad,4,latteleft,18,1,644,latte1,DGMB,practice,practiceMilkBad
14,24,Lattebad,6,badleft,18,1,698,fallimento,DGMB,practice,practiceMilkBad
14,24,Lattebad,8,fondenteright,23,1,510,fond1,DGMB,practice,practiceMilkBad
14,24,Lattebad,10,badleft,18,1,667,nocivo,DGMB,practice,practiceMilkBad
14,24,Lattebad,12,fondenteright,23,1,463,fond7,DGMB,practice,practiceMilkBad
14,24,Lattebad,14,goodright,23,1,651,buono,DGMB,practice,practiceMilkBad
14,24,Lattebad,16,latteleft,18,1,620,latte5,DGMB,practice,practiceMilkBad
14,24,Lattebad,18,badleft,18,1,798,cattivo,DGMB,practice,practiceMilkBad
14,24,Lattebad,20,latteleft,23,0,1020,latte4,DGMB,practice,practiceMilkBad
14,24,Lattebad,22,badleft,18,1,1981,male,DGMB,practice,practiceMilkBad
14,24,Lattebad,24,latteleft,18,1,1223,latte2,DGMB,practice,practiceMilkBad
14,24,Lattebad,26,badleft,18,1,1003,odio,DGMB,practice,practiceMilkBad
14,24,Lattebad,28,latteleft,18,1,1265,latte6,DGMB,practice,practiceMilkBad
14,24,Lattebad,30,badleft,18,1,492,fastidioso,DGMB,practice,practiceMilkBad
14,24,Lattebad,32,fondenteright,23,1,446,fond4,DGMB,practice,practiceMilkBad
14,24,Lattebad,34,goodright,23,1,445,eccellente,DGMB,practice,practiceMilkBad
14,24,Lattebad,36,fondenteright,23,1,574,fond6,DGMB,practice,practiceMilkBad
14,24,Lattebad,38,goodright,23,1,472,felicità,DGMB,practice,practiceMilkBad
14,24,Lattebad,40,latteleft,18,1,479,latte3,DGMB,practice,practiceMilkBad
14,24,Lattebad,43,fondenteright,23,1,623,fond5,DGMB,test,testMilkBad
14,24,Lattebad,45,goodright,23,1,507,paradiso,DGMB,test,testMilkBad
14,24,Lattebad,47,fondenteright,23,1,351,fond2,DGMB,test,testMilkBad
14,24,Lattebad,49,goodright,23,1,452,ridere,DGMB,test,testMilkBad
14,24,Lattebad,51,latteleft,18,1,398,latte7,DGMB,test,testMilkBad
14,24,Lattebad,53,goodright,23,1,549,bello,DGMB,test,testMilkBad
14,24,Lattebad,55,latteleft,18,1,489,latte3,DGMB,test,testMilkBad
14,24,Lattebad,57,badleft,18,1,635,brutto,DGMB,test,testMilkBad
14,24,Lattebad,59,latteleft,18,1,353,latte2,DGMB,test,testMilkBad
14,24,Lattebad,61,goodright,23,1,462,stupendo,DGMB,test,testMilkBad
14,24,Lattebad,63,fondenteright,23,1,426,fond3,DGMB,test,testMilkBad
14,24,Lattebad,65,goodright,23,1,511,piacere,DGMB,test,testMilkBad
14,24,Lattebad,67,latteleft,18,1,462,latte6,DGMB,test,testMilkBad
14,24,Lattebad,69,badleft,18,1,511,agonia,DGMB,test,testMilkBad
14,24,Lattebad,71,fondenteright,18,0,470,fond2,DGMB,test,testMilkBad
14,24,Lattebad,73,goodright,18,0,571,amore,DGMB,test,testMilkBad
14,24,Lattebad,75,latteleft,23,0,492,latte4,DGMB,test,testMilkBad
14,24,Lattebad,77,badleft,18,1,2022,disastro,DGMB,test,testMilkBad
14,24,Lattebad,79,fondenteright,23,1,448,fond4,DGMB,test,testMilkBad
14,24,Lattebad,81,badleft,23,0,551,dolore,DGMB,test,testMilkBad
14,24,Lattebad,83,fondenteright,23,1,734,fond6,DGMB,test,testMilkBad
14,24,Lattebad,85,badleft,18,1,1991,terribile,DGMB,test,testMilkBad
14,24,Lattebad,87,fondenteright,23,1,625,fond1,DGMB,test,testMilkBad
14,24,Lattebad,89,goodright,23,1,1790,gloria,DGMB,test,testMilkBad
14,24,Lattebad,91,latteleft,18,1,584,latte7,DGMB,test,testMilkBad
14,24,Lattebad,93,goodright,23,1,1012,gioia,DGMB,test,testMilkBad
14,24,Lattebad,95,fondenteright,23,1,1149,fond7,DGMB,test,testMilkBad
14,24,Lattebad,97,goodright,23,1,784,pace,DGMB,test,testMilkBad
14,24,Lattebad,99,latteleft,18,1,556,latte5,DGMB,test,testMilkBad
14,24,Lattebad,101,goodright,23,1,1451,meraviglioso,DGMB,test,testMilkBad
14,24,Lattebad,103,latteleft,18,1,1147,latte1,DGMB,test,testMilkBad
14,24,Lattebad,105,badleft,18,1,1646,orribile,DGMB,test,testMilkBad
14,24,Lattebad,107,fondenteright,23,1,590,fond5,DGMB,test,testMilkBad
14,24,Lattebad,109,badleft,18,1,627,male,DGMB,test,testMilkBad
14,24,Lattebad,111,fondenteright,23,1,743,fond3,DGMB,test,testMilkBad
14,24,Lattebad,113,goodright,23,1,803,pace,DGMB,test,testMilkBad
14,24,Lattebad,115,fondenteright,23,1,657,fond2,DGMB,test,testMilkBad
14,24,Lattebad,117,goodright,23,1,651,stupendo,DGMB,test,testMilkBad
14,24,Lattebad,119,latteleft,18,1,468,latte6,DGMB,test,testMilkBad
14,24,Lattebad,121,badleft,18,1,729,nocivo,DGMB,test,testMilkBad
23,10,Fondentebad,2,badleft,18,1,795,cattivo,MGDB,practice,practiceMilkGood
23,10,Fondentebad,4,fondenteleft,18,1,833,fond1,MGDB,practice,practiceMilkGood
23,10,Fondentebad,6,goodright,23,1,958,ridere,MGDB,practice,practiceMilkGood
23,10,Fondentebad,8,fondenteleft,18,1,836,fond5,MGDB,practice,practiceMilkGood
23,10,Fondentebad,10,goodright,23,1,711,paradiso,MGDB,practice,practiceMilkGood
23,10,Fondentebad,12,latteright,23,1,758,latte3,MGDB,practice,practiceMilkGood
23,10,Fondentebad,14,badleft,18,1,749,dolore,MGDB,practice,practiceMilkGood
23,10,Fondentebad,16,latteright,18,0,769,latte7,MGDB,practice,practiceMilkGood
23,10,Fondentebad,18,badleft,18,1,783,male,MGDB,practice,practiceMilkGood
23,10,Fondentebad,20,latteright,23,1,923,latte6,MGDB,practice,practiceMilkGood
23,10,Fondentebad,22,goodright,23,1,706,stupendo,MGDB,practice,practiceMilkGood
23,10,Fondentebad,24,latteright,23,1,509,latte5,MGDB,practice,practiceMilkGood
23,10,Fondentebad,26,badleft,18,1,674,agonia,MGDB,practice,practiceMilkGood
23,10,Fondentebad,28,latteright,23,1,585,latte1,MGDB,practice,practiceMilkGood
23,10,Fondentebad,30,badleft,18,1,637,schifo,MGDB,practice,practiceMilkGood
23,10,Fondentebad,32,fondenteleft,18,1,500,fond2,MGDB,practice,practiceMilkGood
23,10,Fondentebad,34,goodright,23,1,1053,felicità,MGDB,practice,practiceMilkGood
23,10,Fondentebad,36,latteright,23,1,598,latte2,MGDB,practice,practiceMilkGood
23,10,Fondentebad,38,badleft,18,1,669,terribile,MGDB,practice,practiceMilkGood
23,10,Fondentebad,40,fondenteleft,18,1,1665,fond6,MGDB,practice,practiceMilkGood
23,10,Fondentebad,43,fondenteleft,18,1,1345,fond7,MGDB,test,testMilkGood
23,10,Fondentebad,45,goodright,23,1,820,pace,MGDB,test,testMilkGood
23,10,Fondentebad,47,fondenteleft,18,1,680,fond4,MGDB,test,testMilkGood
23,10,Fondentebad,49,badleft,18,1,599,nocivo,MGDB,test,testMilkGood
23,10,Fondentebad,51,fondenteleft,18,1,645,fond3,MGDB,test,testMilkGood
23,10,Fondentebad,53,goodright,23,1,580,bello,MGDB,test,testMilkGood
23,10,Fondentebad,55,fondenteleft,18,1,1272,fond7,MGDB,test,testMilkGood
23,10,Fondentebad,57,badleft,18,1,604,odio,MGDB,test,testMilkGood
23,10,Fondentebad,59,latteright,23,1,562,latte4,MGDB,test,testMilkGood
23,10,Fondentebad,61,goodright,23,1,561,piacere,MGDB,test,testMilkGood
23,10,Fondentebad,63,fondenteleft,18,1,664,fond1,MGDB,test,testMilkGood
23,10,Fondentebad,65,goodright,23,1,788,meraviglioso,MGDB,test,testMilkGood
23,10,Fondentebad,67,latteright,23,1,1088,latte1,MGDB,test,testMilkGood
23,10,Fondentebad,69,badleft,18,1,798,brutto,MGDB,test,testMilkGood
23,10,Fondentebad,71,fondenteleft,18,1,693,fond6,MGDB,test,testMilkGood
23,10,Fondentebad,73,badleft,18,1,630,orribile,MGDB,test,testMilkGood
23,10,Fondentebad,75,latteright,23,1,562,latte3,MGDB,test,testMilkGood
23,10,Fondentebad,77,goodright,23,1,705,amore,MGDB,test,testMilkGood
23,10,Fondentebad,79,latteright,23,1,621,latte2,MGDB,test,testMilkGood
23,10,Fondentebad,81,goodright,23,1,687,gloria,MGDB,test,testMilkGood
23,10,Fondentebad,83,latteright,23,1,536,latte7,MGDB,test,testMilkGood
23,10,Fondentebad,85,badleft,18,1,682,fastidioso,MGDB,test,testMilkGood
23,10,Fondentebad,87,latteright,23,1,840,latte5,MGDB,test,testMilkGood
23,10,Fondentebad,89,goodright,23,1,927,gioia,MGDB,test,testMilkGood
23,10,Fondentebad,91,fondenteleft,18,1,488,fond3,MGDB,test,testMilkGood
23,10,Fondentebad,93,badleft,18,1,679,disastro,MGDB,test,testMilkGood
23,10,Fondentebad,95,fondenteleft,18,1,518,fond4,MGDB,test,testMilkGood
23,10,Fondentebad,97,goodright,23,1,549,buono,MGDB,test,testMilkGood
23,10,Fondentebad,99,fondenteleft,18,1,649,fond2,MGDB,test,testMilkGood
23,10,Fondentebad,101,badleft,18,1,474,fallimento,MGDB,test,testMilkGood
23,10,Fondentebad,103,latteright,23,1,489,latte6,MGDB,test,testMilkGood
23,10,Fondentebad,105,badleft,18,1,667,cattivo,MGDB,test,testMilkGood
23,10,Fondentebad,107,fondenteleft,18,1,703,fond5,MGDB,test,testMilkGood
23,10,Fondentebad,109,goodright,23,1,587,eccellente,MGDB,test,testMilkGood
23,10,Fondentebad,111,latteright,23,1,615,latte4,MGDB,test,testMilkGood
23,10,Fondentebad,113,goodright,23,1,657,felicità,MGDB,test,testMilkGood
23,10,Fondentebad,115,fondenteleft,18,1,498,fond3,MGDB,test,testMilkGood
23,10,Fondentebad,117,badleft,18,1,684,disastro,MGDB,test,testMilkGood
23,10,Fondentebad,119,latteright,23,1,474,latte5,MGDB,test,testMilkGood
23,10,Fondentebad,121,goodright,23,1,927,buono,MGDB,test,testMilkGood
23,14,Lattebad,2,badleft,18,1,540,brutto,DGMB,practice,practiceMilkBad
23,14,Lattebad,4,latteleft,18,1,936,latte5,DGMB,practice,practiceMilkBad
23,14,Lattebad,6,badleft,18,1,553,odio,DGMB,practice,practiceMilkBad
23,14,Lattebad,8,latteleft,18,1,528,latte1,DGMB,practice,practiceMilkBad
23,14,Lattebad,10,goodright,18,0,527,amore,DGMB,practice,practiceMilkBad
23,14,Lattebad,12,fondenteright,23,1,2384,fond1,DGMB,practice,practiceMilkBad
23,14,Lattebad,14,badleft,18,1,1439,schifo,DGMB,practice,practiceMilkBad
23,14,Lattebad,16,latteleft,18,1,1493,latte3,DGMB,practice,practiceMilkBad
23,14,Lattebad,18,goodright,23,1,1101,gioia,DGMB,practice,practiceMilkBad
23,14,Lattebad,20,latteleft,18,1,1504,latte6,DGMB,practice,practiceMilkBad
23,14,Lattebad,22,goodright,23,1,947,pace,DGMB,practice,practiceMilkBad
23,14,Lattebad,24,latteleft,18,1,783,latte7,DGMB,practice,practiceMilkBad
23,14,Lattebad,26,badleft,18,1,867,cattivo,DGMB,practice,practiceMilkBad
23,14,Lattebad,28,latteleft,18,1,1046,latte2,DGMB,practice,practiceMilkBad
23,14,Lattebad,30,goodright,23,1,565,ridere,DGMB,practice,practiceMilkBad
23,14,Lattebad,32,latteleft,18,1,982,latte4,DGMB,practice,practiceMilkBad
23,14,Lattebad,34,goodright,18,0,1071,felicità,DGMB,practice,practiceMilkBad
23,14,Lattebad,36,latteleft,18,1,2818,latte6,DGMB,practice,practiceMilkBad
23,14,Lattebad,38,badleft,18,1,937,agonia,DGMB,practice,practiceMilkBad
23,14,Lattebad,40,fondenteright,23,1,922,fond7,DGMB,practice,practiceMilkBad
23,14,Lattebad,43,latteleft,18,1,982,latte1,DGMB,test,testMilkBad
23,14,Lattebad,45,badleft,18,1,1103,dolore,DGMB,test,testMilkBad
23,14,Lattebad,47,fondenteright,23,1,1034,fond6,DGMB,test,testMilkBad
23,14,Lattebad,49,badleft,18,1,1374,male,DGMB,test,testMilkBad
23,14,Lattebad,51,fondenteright,23,1,902,fond5,DGMB,test,testMilkBad
23,14,Lattebad,53,goodright,18,0,823,piacere,DGMB,test,testMilkBad
23,14,Lattebad,55,fondenteright,23,1,1699,fond2,DGMB,test,testMilkBad
23,14,Lattebad,57,goodright,23,1,2859,bello,DGMB,test,testMilkBad
23,14,Lattebad,59,latteleft,18,1,1137,latte2,DGMB,test,testMilkBad
23,14,Lattebad,61,goodright,23,1,769,meraviglioso,DGMB,test,testMilkBad
23,14,Lattebad,63,fondenteright,23,1,1347,fond4,DGMB,test,testMilkBad
23,14,Lattebad,65,goodright,23,1,1670,eccellente,DGMB,test,testMilkBad
23,14,Lattebad,67,latteleft,18,1,1753,latte7,DGMB,test,testMilkBad
23,14,Lattebad,69,badleft,18,1,1059,disastro,DGMB,test,testMilkBad
23,14,Lattebad,71,latteleft,18,1,1582,latte4,DGMB,test,testMilkBad
23,14,Lattebad,73,badleft,18,1,750,fastidioso,DGMB,test,testMilkBad
23,14,Lattebad,75,fondenteright,23,1,882,fond3,DGMB,test,testMilkBad
23,14,Lattebad,77,goodright,23,1,1128,stupendo,DGMB,test,testMilkBad
23,14,Lattebad,79,fondenteright,23,1,1241,fond4,DGMB,test,testMilkBad
23,14,Lattebad,81,badleft,18,1,2503,terribile,DGMB,test,testMilkBad
23,14,Lattebad,83,fondenteright,23,1,880,fond1,DGMB,test,testMilkBad
23,14,Lattebad,85,badleft,18,1,1103,nocivo,DGMB,test,testMilkBad
23,14,Lattebad,87,fondenteright,23,1,722,fond2,DGMB,test,testMilkBad
23,14,Lattebad,89,goodright,23,1,1377,gloria,DGMB,test,testMilkBad
23,14,Lattebad,91,latteleft,18,1,1073,latte5,DGMB,test,testMilkBad
23,14,Lattebad,93,goodright,23,1,2133,paradiso,DGMB,test,testMilkBad
23,14,Lattebad,95,fondenteright,23,1,860,fond3,DGMB,test,testMilkBad
23,14,Lattebad,97,badleft,18,1,1157,fallimento,DGMB,test,testMilkBad
23,14,Lattebad,99,latteleft,18,1,1547,latte3,DGMB,test,testMilkBad
23,14,Lattebad,101,badleft,18,1,1526,orribile,DGMB,test,testMilkBad
23,14,Lattebad,103,fondenteright,23,1,918,fond6,DGMB,test,testMilkBad
23,14,Lattebad,105,badleft,18,1,1940,disastro,DGMB,test,testMilkBad
23,14,Lattebad,107,fondenteright,23,1,1070,fond7,DGMB,test,testMilkBad
23,14,Lattebad,109,badleft,18,1,978,fallimento,DGMB,test,testMilkBad
23,14,Lattebad,111,fondenteright,23,1,802,fond5,DGMB,test,testMilkBad
23,14,Lattebad,113,goodright,23,1,1153,buono,DGMB,test,testMilkBad
23,14,Lattebad,115,fondenteright,23,1,831,fond7,DGMB,test,testMilkBad
23,14,Lattebad,117,goodright,23,1,707,stupendo,DGMB,test,testMilkBad
23,14,Lattebad,119,latteleft,18,1,607,latte5,DGMB,test,testMilkBad
23,14,Lattebad,121,goodright,23,1,894,pace,DGMB,test,testMilkBad
29,20,Fondentebad,2,badleft,18,1,962,orribile,MGDB,practice,practiceMilkGood
29,20,Fondentebad,4,latteright,23,1,859,latte7,MGDB,practice,practiceMilkGood
29,20,Fondentebad,6,badleft,18,1,1188,fallimento,MGDB,practice,practiceMilkGood
29,20,Fondentebad,8,latteright,23,1,695,latte3,MGDB,practice,practiceMilkGood
29,20,Fondentebad,10,goodright,23,1,745,buono,MGDB,practice,practiceMilkGood
29,20,Fondentebad,12,latteright,23,1,612,latte4,MGDB,practice,practiceMilkGood
29,20,Fondentebad,14,badleft,18,1,822,brutto,MGDB,practice,practiceMilkGood
29,20,Fondentebad,16,latteright,23,1,1170,latte1,MGDB,practice,practiceMilkGood
29,20,Fondentebad,18,badleft,18,1,795,nocivo,MGDB,practice,practiceMilkGood
29,20,Fondentebad,20,latteright,23,1,1153,latte5,MGDB,practice,practiceMilkGood
29,20,Fondentebad,22,badleft,18,1,708,schifo,MGDB,practice,practiceMilkGood
29,20,Fondentebad,24,latteright,23,1,768,latte2,MGDB,practice,practiceMilkGood
29,20,Fondentebad,26,goodright,23,1,743,gloria,MGDB,practice,practiceMilkGood
29,20,Fondentebad,28,fondenteleft,18,1,611,fond1,MGDB,practice,practiceMilkGood
29,20,Fondentebad,30,badleft,18,1,1276,terribile,MGDB,practice,practiceMilkGood
29,20,Fondentebad,32,fondenteleft,18,1,530,fond2,MGDB,practice,practiceMilkGood
29,20,Fondentebad,34,goodright,23,1,716,stupendo,MGDB,practice,practiceMilkGood
29,20,Fondentebad,36,fondenteleft,18,1,970,fond3,MGDB,practice,practiceMilkGood
29,20,Fondentebad,38,goodright,23,1,811,meraviglioso,MGDB,practice,practiceMilkGood
29,20,Fondentebad,40,fondenteleft,18,1,924,fond4,MGDB,practice,practiceMilkGood
29,20,Fondentebad,43,latteright,23,1,755,latte6,MGDB,test,testMilkGood
29,20,Fondentebad,45,badleft,18,1,743,cattivo,MGDB,test,testMilkGood
29,20,Fondentebad,47,latteright,23,1,491,latte2,MGDB,test,testMilkGood
29,20,Fondentebad,49,badleft,18,1,1101,male,MGDB,test,testMilkGood
29,20,Fondentebad,51,latteright,23,1,584,latte4,MGDB,test,testMilkGood
29,20,Fondentebad,53,goodright,23,1,684,pace,MGDB,test,testMilkGood
29,20,Fondentebad,55,fondenteleft,18,1,542,fond7,MGDB,test,testMilkGood
29,20,Fondentebad,57,badleft,18,1,807,fastidioso,MGDB,test,testMilkGood
29,20,Fondentebad,59,fondenteleft,18,1,568,fond5,MGDB,test,testMilkGood
29,20,Fondentebad,61,goodright,23,1,639,felicità,MGDB,test,testMilkGood
29,20,Fondentebad,63,fondenteleft,18,1,574,fond6,MGDB,test,testMilkGood
29,20,Fondentebad,65,goodright,23,1,1248,paradiso,MGDB,test,testMilkGood
29,20,Fondentebad,67,latteright,23,1,680,latte5,MGDB,test,testMilkGood
29,20,Fondentebad,69,badleft,18,1,679,dolore,MGDB,test,testMilkGood
29,20,Fondentebad,71,latteright,23,1,854,latte6,MGDB,test,testMilkGood
29,20,Fondentebad,73,badleft,18,1,871,agonia,MGDB,test,testMilkGood
29,20,Fondentebad,75,fondenteleft,18,1,602,fond6,MGDB,test,testMilkGood
29,20,Fondentebad,77,goodright,23,1,594,bello,MGDB,test,testMilkGood
29,20,Fondentebad,79,latteright,23,1,1464,latte1,MGDB,test,testMilkGood
29,20,Fondentebad,81,badleft,18,1,1163,disastro,MGDB,test,testMilkGood
29,20,Fondentebad,83,fondenteleft,18,1,601,fond4,MGDB,test,testMilkGood
29,20,Fondentebad,85,badleft,18,1,696,odio,MGDB,test,testMilkGood
29,20,Fondentebad,87,latteright,23,1,697,latte3,MGDB,test,testMilkGood
29,20,Fondentebad,89,goodright,23,1,1595,gioia,MGDB,test,testMilkGood
29,20,Fondentebad,91,fondenteleft,18,1,528,fond1,MGDB,test,testMilkGood
29,20,Fondentebad,93,goodright,23,1,599,piacere,MGDB,test,testMilkGood
29,20,Fondentebad,95,fondenteleft,18,1,614,fond2,MGDB,test,testMilkGood
29,20,Fondentebad,97,goodright,23,1,751,amore,MGDB,test,testMilkGood
29,20,Fondentebad,99,fondenteleft,18,1,1102,fond7,MGDB,test,testMilkGood
29,20,Fondentebad,101,goodright,23,1,1279,ridere,MGDB,test,testMilkGood
29,20,Fondentebad,103,fondenteleft,18,1,724,fond5,MGDB,test,testMilkGood
29,20,Fondentebad,105,badleft,18,1,1163,agonia,MGDB,test,testMilkGood
29,20,Fondentebad,107,fondenteleft,18,1,577,fond3,MGDB,test,testMilkGood
29,20,Fondentebad,109,goodright,23,1,659,eccellente,MGDB,test,testMilkGood
29,20,Fondentebad,111,latteright,23,1,687,latte7,MGDB,test,testMilkGood
29,20,Fondentebad,113,badleft,18,1,853,fastidioso,MGDB,test,testMilkGood
29,20,Fondentebad,115,fondenteleft,18,1,726,fond2,MGDB,test,testMilkGood
29,20,Fondentebad,117,goodright,23,1,629,paradiso,MGDB,test,testMilkGood
29,20,Fondentebad,119,latteright,23,1,769,latte6,MGDB,test,testMilkGood
29,20,Fondentebad,121,goodright,23,1,1251,meraviglioso,MGDB,test,testMilkGood
29,24,Lattebad,2,badleft,23,0,1415,fastidioso,DGMB,practice,practiceMilkBad
29,24,Lattebad,4,latteleft,18,1,1066,latte7,DGMB,practice,practiceMilkBad
29,24,Lattebad,6,badleft,18,1,1045,fallimento,DGMB,practice,practiceMilkBad
29,24,Lattebad,8,latteleft,18,1,1142,latte6,DGMB,practice,practiceMilkBad
29,24,Lattebad,10,badleft,18,1,1895,male,DGMB,practice,practiceMilkBad
29,24,Lattebad,12,fondenteright,23,1,726,fond7,DGMB,practice,practiceMilkBad
29,24,Lattebad,14,badleft,18,1,1669,cattivo,DGMB,practice,practiceMilkBad
29,24,Lattebad,16,fondenteright,23,1,783,fond1,DGMB,practice,practiceMilkBad
29,24,Lattebad,18,badleft,18,1,1411,schifo,DGMB,practice,practiceMilkBad
29,24,Lattebad,20,latteleft,18,1,1155,latte2,DGMB,practice,practiceMilkBad
29,24,Lattebad,22,goodright,23,1,799,felicità,DGMB,practice,practiceMilkBad
29,24,Lattebad,24,fondenteright,23,1,1181,fond4,DGMB,practice,practiceMilkBad
29,24,Lattebad,26,goodright,23,1,2062,buono,DGMB,practice,practiceMilkBad
29,24,Lattebad,28,fondenteright,23,1,832,fond5,DGMB,practice,practiceMilkBad
29,24,Lattebad,30,badleft,23,0,828,agonia,DGMB,practice,practiceMilkBad
29,24,Lattebad,32,fondenteright,23,1,640,fond3,DGMB,practice,practiceMilkBad
29,24,Lattebad,34,badleft,18,1,1190,brutto,DGMB,practice,practiceMilkBad
29,24,Lattebad,36,fondenteright,23,1,810,fond6,DGMB,practice,practiceMilkBad
29,24,Lattebad,38,goodright,23,1,1163,bello,DGMB,practice,practiceMilkBad
29,24,Lattebad,40,latteleft,18,1,929,latte1,DGMB,practice,practiceMilkBad
29,24,Lattebad,43,fondenteright,18,0,994,fond2,DGMB,test,testMilkBad
29,24,Lattebad,45,goodright,23,1,862,amore,DGMB,test,testMilkBad
29,24,Lattebad,47,latteleft,18,1,882,latte3,DGMB,test,testMilkBad
29,24,Lattebad,49,badleft,18,1,712,orribile,DGMB,test,testMilkBad
29,24,Lattebad,51,fondenteright,23,1,751,fond4,DGMB,test,testMilkBad
29,24,Lattebad,53,badleft,18,1,1163,dolore,DGMB,test,testMilkBad
29,24,Lattebad,55,fondenteright,23,1,545,fond5,DGMB,test,testMilkBad
29,24,Lattebad,57,badleft,18,1,909,disastro,DGMB,test,testMilkBad
29,24,Lattebad,59,latteleft,23,0,1505,latte5,DGMB,test,testMilkBad
29,24,Lattebad,61,goodright,23,1,1283,piacere,DGMB,test,testMilkBad
29,24,Lattebad,63,latteleft,18,1,1889,latte4,DGMB,test,testMilkBad
29,24,Lattebad,65,goodright,23,1,974,gloria,DGMB,test,testMilkBad
29,24,Lattebad,67,latteleft,18,1,943,latte4,DGMB,test,testMilkBad
29,24,Lattebad,69,goodright,23,1,755,ridere,DGMB,test,testMilkBad
29,24,Lattebad,71,latteleft,18,1,841,latte1,DGMB,test,testMilkBad
29,24,Lattebad,73,goodright,23,1,664,gioia,DGMB,test,testMilkBad
29,24,Lattebad,75,latteleft,18,1,1268,latte7,DGMB,test,testMilkBad
29,24,Lattebad,77,badleft,23,0,815,nocivo,DGMB,test,testMilkBad
29,24,Lattebad,79,latteleft,18,1,1216,latte3,DGMB,test,testMilkBad
29,24,Lattebad,81,goodright,23,1,585,eccellente,DGMB,test,testMilkBad
29,24,Lattebad,83,fondenteright,23,1,2493,fond3,DGMB,test,testMilkBad
29,24,Lattebad,85,badleft,18,1,788,terribile,DGMB,test,testMilkBad
29,24,Lattebad,87,fondenteright,18,0,583,fond7,DGMB,test,testMilkBad
29,24,Lattebad,89,badleft,18,1,2860,odio,DGMB,test,testMilkBad
29,24,Lattebad,91,fondenteright,23,1,1490,fond2,DGMB,test,testMilkBad
29,24,Lattebad,93,goodright,23,1,1543,meraviglioso,DGMB,test,testMilkBad
29,24,Lattebad,95,latteleft,18,1,834,latte5,DGMB,test,testMilkBad
29,24,Lattebad,97,goodright,23,1,646,paradiso,DGMB,test,testMilkBad
29,24,Lattebad,99,latteleft,23,0,2047,latte6,DGMB,test,testMilkBad
29,24,Lattebad,101,goodright,23,1,1132,pace,DGMB,test,testMilkBad
29,24,Lattebad,103,fondenteright,23,1,1068,fond6,DGMB,test,testMilkBad
29,24,Lattebad,105,badleft,18,1,1312,cattivo,DGMB,test,testMilkBad
29,24,Lattebad,107,latteleft,18,1,566,latte2,DGMB,test,testMilkBad
29,24,Lattebad,109,goodright,23,1,773,stupendo,DGMB,test,testMilkBad
29,24,Lattebad,111,fondenteright,23,1,926,fond1,DGMB,test,testMilkBad
29,24,Lattebad,113,goodright,23,1,588,piacere,DGMB,test,testMilkBad
29,24,Lattebad,115,latteleft,18,1,840,latte4,DGMB,test,testMilkBad
29,24,Lattebad,117,badleft,18,1,831,nocivo,DGMB,test,testMilkBad
29,24,Lattebad,119,fondenteright,23,1,930,fond2,DGMB,test,testMilkBad
29,24,Lattebad,121,goodright,23,1,580,gioia,DGMB,test,testMilkBad
27,20,Lattebad,2,badleft,18,1,913,disastro,DGMB,practice,practiceMilkBad
27,20,Lattebad,4,latteleft,18,1,1015,latte5,DGMB,practice,practiceMilkBad
27,20,Lattebad,6,goodright,23,1,1208,ridere,DGMB,practice,practiceMilkBad
27,20,Lattebad,8,latteleft,18,1,936,latte6,DGMB,practice,practiceMilkBad
27,20,Lattebad,10,badleft,18,1,697,fallimento,DGMB,practice,practiceMilkBad
27,20,Lattebad,12,fondenteright,23,1,562,fond2,DGMB,practice,practiceMilkBad
27,20,Lattebad,14,badleft,18,1,842,schifo,DGMB,practice,practiceMilkBad
27,20,Lattebad,16,fondenteright,23,1,832,fond4,DGMB,practice,practiceMilkBad
27,20,Lattebad,18,badleft,18,1,1052,agonia,DGMB,practice,practiceMilkBad
27,20,Lattebad,20,fondenteright,23,1,669,fond6,DGMB,practice,practiceMilkBad
27,20,Lattebad,22,goodright,23,1,785,paradiso,DGMB,practice,practiceMilkBad
27,20,Lattebad,24,latteleft,18,1,1308,latte7,DGMB,practice,practiceMilkBad
27,20,Lattebad,26,badleft,18,1,792,fastidioso,DGMB,practice,practiceMilkBad
27,20,Lattebad,28,latteleft,18,1,814,latte1,DGMB,practice,practiceMilkBad
27,20,Lattebad,30,badleft,18,1,528,odio,DGMB,practice,practiceMilkBad
27,20,Lattebad,32,fondenteright,23,1,625,fond1,DGMB,practice,practiceMilkBad
27,20,Lattebad,34,goodright,23,1,613,gioia,DGMB,practice,practiceMilkBad
27,20,Lattebad,36,fondenteright,23,1,567,fond3,DGMB,practice,practiceMilkBad
27,20,Lattebad,38,goodright,23,1,830,bello,DGMB,practice,practiceMilkBad
27,20,Lattebad,40,fondenteright,23,1,505,fond5,DGMB,practice,practiceMilkBad
27,20,Lattebad,43,latteleft,18,1,753,latte3,DGMB,test,testMilkBad
27,20,Lattebad,45,goodright,23,1,1205,buono,DGMB,test,testMilkBad
27,20,Lattebad,47,fondenteright,23,1,886,fond7,DGMB,test,testMilkBad
27,20,Lattebad,49,badleft,18,1,636,nocivo,DGMB,test,testMilkBad
27,20,Lattebad,51,fondenteright,23,1,659,fond4,DGMB,test,testMilkBad
27,20,Lattebad,53,goodright,23,1,700,meraviglioso,DGMB,test,testMilkBad
27,20,Lattebad,55,latteleft,18,1,568,latte4,DGMB,test,testMilkBad
27,20,Lattebad,57,badleft,18,1,655,male,DGMB,test,testMilkBad
27,20,Lattebad,59,fondenteright,23,1,537,fond2,DGMB,test,testMilkBad
27,20,Lattebad,61,goodright,23,1,1098,piacere,DGMB,test,testMilkBad
27,20,Lattebad,63,latteleft,18,1,1541,latte2,DGMB,test,testMilkBad
27,20,Lattebad,65,badleft,18,1,734,orribile,DGMB,test,testMilkBad
27,20,Lattebad,67,latteleft,18,1,751,latte3,DGMB,test,testMilkBad
27,20,Lattebad,69,goodright,23,1,619,stupendo,DGMB,test,testMilkBad
27,20,Lattebad,71,latteleft,23,0,495,latte2,DGMB,test,testMilkBad
27,20,Lattebad,73,goodright,23,1,961,pace,DGMB,test,testMilkBad
27,20,Lattebad,75,latteleft,18,1,583,latte5,DGMB,test,testMilkBad
27,20,Lattebad,77,badleft,18,1,979,brutto,DGMB,test,testMilkBad
27,20,Lattebad,79,fondenteright,23,1,647,fond5,DGMB,test,testMilkBad
27,20,Lattebad,81,badleft,18,1,750,dolore,DGMB,test,testMilkBad
27,20,Lattebad,83,fondenteright,18,0,1170,fond6,DGMB,test,testMilkBad
27,20,Lattebad,85,badleft,18,1,1130,terribile,DGMB,test,testMilkBad
27,20,Lattebad,87,latteleft,18,1,755,latte4,DGMB,test,testMilkBad
27,20,Lattebad,89,badleft,18,1,671,cattivo,DGMB,test,testMilkBad
27,20,Lattebad,91,fondenteright,23,1,550,fond1,DGMB,test,testMilkBad
27,20,Lattebad,93,goodright,23,1,762,eccellente,DGMB,test,testMilkBad
27,20,Lattebad,95,latteleft,18,1,624,latte1,DGMB,test,testMilkBad
27,20,Lattebad,97,goodright,23,1,812,amore,DGMB,test,testMilkBad
27,20,Lattebad,99,fondenteright,23,1,942,fond3,DGMB,test,testMilkBad
27,20,Lattebad,101,badleft,18,1,663,disastro,DGMB,test,testMilkBad
27,20,Lattebad,103,latteleft,18,1,947,latte7,DGMB,test,testMilkBad
27,20,Lattebad,105,goodright,23,1,966,gloria,DGMB,test,testMilkBad
27,20,Lattebad,107,fondenteright,23,1,1367,fond7,DGMB,test,testMilkBad
27,20,Lattebad,109,goodright,23,1,933,felicità,DGMB,test,testMilkBad
27,20,Lattebad,111,latteleft,18,1,1086,latte6,DGMB,test,testMilkBad
27,20,Lattebad,113,goodright,23,1,1180,piacere,DGMB,test,testMilkBad
27,20,Lattebad,115,latteleft,23,0,927,latte4,DGMB,test,testMilkBad
27,20,Lattebad,117,goodright,23,1,878,felicità,DGMB,test,testMilkBad
27,20,Lattebad,119,fondenteright,18,0,788,fond5,DGMB,test,testMilkBad
27,20,Lattebad,121,badleft,18,1,1488,male,DGMB,test,testMilkBad
27,24,Fondentebad,2,badleft,18,1,807,dolore,MGDB,practice,practiceMilkGood
27,24,Fondentebad,4,fondenteleft,18,1,440,fond2,MGDB,practice,practiceMilkGood
27,24,Fondentebad,6,goodright,23,1,2279,ridere,MGDB,practice,practiceMilkGood
27,24,Fondentebad,8,latteright,23,1,1236,latte6,MGDB,practice,practiceMilkGood
27,24,Fondentebad,10,badleft,18,1,1535,fallimento,MGDB,practice,practiceMilkGood
27,24,Fondentebad,12,fondenteleft,18,1,1407,fond5,MGDB,practice,practiceMilkGood
27,24,Fondentebad,14,badleft,18,1,540,odio,MGDB,practice,practiceMilkGood
27,24,Fondentebad,16,latteright,23,1,681,latte7,MGDB,practice,practiceMilkGood
27,24,Fondentebad,18,badleft,18,1,1248,fastidioso,MGDB,practice,practiceMilkGood
27,24,Fondentebad,20,latteright,23,1,800,latte1,MGDB,practice,practiceMilkGood
27,24,Fondentebad,22,goodright,23,1,743,gioia,MGDB,practice,practiceMilkGood
27,24,Fondentebad,24,fondenteleft,18,1,531,fond6,MGDB,practice,practiceMilkGood
27,24,Fondentebad,26,badleft,18,1,668,disastro,MGDB,practice,practiceMilkGood
27,24,Fondentebad,28,latteright,23,1,568,latte2,MGDB,practice,practiceMilkGood
27,24,Fondentebad,30,badleft,18,1,751,male,MGDB,practice,practiceMilkGood
27,24,Fondentebad,32,fondenteleft,23,0,502,fond3,MGDB,practice,practiceMilkGood
27,24,Fondentebad,34,goodright,23,1,911,bello,MGDB,practice,practiceMilkGood
27,24,Fondentebad,36,fondenteleft,18,1,742,fond4,MGDB,practice,practiceMilkGood
27,24,Fondentebad,38,goodright,23,1,847,felicità,MGDB,practice,practiceMilkGood
27,24,Fondentebad,40,latteright,23,1,792,latte3,MGDB,practice,practiceMilkGood
27,24,Fondentebad,43,fondenteleft,18,1,1010,fond1,MGDB,test,testMilkGood
27,24,Fondentebad,45,badleft,18,1,668,terribile,MGDB,test,testMilkGood
27,24,Fondentebad,47,fondenteleft,18,1,455,fond7,MGDB,test,testMilkGood
27,24,Fondentebad,49,badleft,18,1,529,brutto,MGDB,test,testMilkGood
27,24,Fondentebad,51,fondenteleft,18,1,427,fond2,MGDB,test,testMilkGood
27,24,Fondentebad,53,goodright,23,1,687,paradiso,MGDB,test,testMilkGood
27,24,Fondentebad,55,fondenteleft,18,1,969,fond6,MGDB,test,testMilkGood
27,24,Fondentebad,57,goodright,23,1,1015,amore,MGDB,test,testMilkGood
27,24,Fondentebad,59,latteright,23,1,1032,latte4,MGDB,test,testMilkGood
27,24,Fondentebad,61,goodright,23,1,835,pace,MGDB,test,testMilkGood
27,24,Fondentebad,63,fondenteleft,18,1,1194,fond1,MGDB,test,testMilkGood
27,24,Fondentebad,65,badleft,18,1,741,agonia,MGDB,test,testMilkGood
27,24,Fondentebad,67,latteright,23,1,849,latte5,MGDB,test,testMilkGood
27,24,Fondentebad,69,badleft,18,1,1039,schifo,MGDB,test,testMilkGood
27,24,Fondentebad,71,fondenteleft,18,1,1334,fond3,MGDB,test,testMilkGood
27,24,Fondentebad,73,badleft,18,1,1246,nocivo,MGDB,test,testMilkGood
27,24,Fondentebad,75,fondenteleft,18,1,838,fond7,MGDB,test,testMilkGood
27,24,Fondentebad,77,goodright,23,1,685,buono,MGDB,test,testMilkGood
27,24,Fondentebad,79,latteright,23,1,542,latte1,MGDB,test,testMilkGood
27,24,Fondentebad,81,goodright,23,1,515,gloria,MGDB,test,testMilkGood
27,24,Fondentebad,83,latteright,23,1,466,latte5,MGDB,test,testMilkGood
27,24,Fondentebad,85,badleft,18,1,990,orribile,MGDB,test,testMilkGood
27,24,Fondentebad,87,latteright,23,1,633,latte2,MGDB,test,testMilkGood
27,24,Fondentebad,89,badleft,18,1,870,cattivo,MGDB,test,testMilkGood
27,24,Fondentebad,91,latteright,23,1,921,latte4,MGDB,test,testMilkGood
27,24,Fondentebad,93,badleft,18,1,640,male,MGDB,test,testMilkGood
27,24,Fondentebad,95,latteright,23,1,695,latte7,MGDB,test,testMilkGood
27,24,Fondentebad,97,badleft,18,1,1048,orribile,MGDB,test,testMilkGood
27,24,Fondentebad,99,fondenteleft,18,1,1265,fond4,MGDB,test,testMilkGood
27,24,Fondentebad,101,goodright,23,1,876,stupendo,MGDB,test,testMilkGood
27,24,Fondentebad,103,fondenteleft,18,1,634,fond5,MGDB,test,testMilkGood
27,24,Fondentebad,105,goodright,23,1,822,eccellente,MGDB,test,testMilkGood
27,24,Fondentebad,107,latteright,23,1,626,latte3,MGDB,test,testMilkGood
27,24,Fondentebad,109,goodright,23,1,447,meraviglioso,MGDB,test,testMilkGood
27,24,Fondentebad,111,latteright,23,1,448,latte6,MGDB,test,testMilkGood
27,24,Fondentebad,113,goodright,23,1,519,piacere,MGDB,test,testMilkGood
27,24,Fondentebad,115,fondenteleft,18,1,534,fond3,MGDB,test,testMilkGood
27,24,Fondentebad,117,goodright,23,1,608,amore,MGDB,test,testMilkGood
27,24,Fondentebad,119,latteright,23,1,953,latte5,MGDB,test,testMilkGood
27,24,Fondentebad,121,goodright,23,1,645,paradiso,MGDB,test,testMilkGood
20,10,Lattebad,2,badleft,18,1,709,brutto,DGMB,practice,practiceMilkBad
20,10,Lattebad,4,fondenteright,23,1,675,fond5,DGMB,practice,practiceMilkBad
20,10,Lattebad,6,badleft,18,1,919,orribile,DGMB,practice,practiceMilkBad
20,10,Lattebad,8,latteleft,18,1,766,latte1,DGMB,practice,practiceMilkBad
20,10,Lattebad,10,badleft,18,1,716,agonia,DGMB,practice,practiceMilkBad
20,10,Lattebad,12,fondenteright,18,0,1339,fond2,DGMB,practice,practiceMilkBad
20,10,Lattebad,14,goodright,23,1,995,felicità,DGMB,practice,practiceMilkBad
20,10,Lattebad,16,latteleft,18,1,609,latte5,DGMB,practice,practiceMilkBad
20,10,Lattebad,18,badleft,18,1,1347,terribile,DGMB,practice,practiceMilkBad
20,10,Lattebad,20,latteleft,18,1,774,latte7,DGMB,practice,practiceMilkBad
20,10,Lattebad,22,goodright,23,1,759,buono,DGMB,practice,practiceMilkBad
20,10,Lattebad,24,fondenteright,23,1,598,fond3,DGMB,practice,practiceMilkBad
20,10,Lattebad,26,badleft,23,0,621,cattivo,DGMB,practice,practiceMilkBad
20,10,Lattebad,28,latteleft,18,1,1129,latte4,DGMB,practice,practiceMilkBad
20,10,Lattebad,30,goodright,18,0,935,piacere,DGMB,practice,practiceMilkBad
20,10,Lattebad,32,fondenteright,23,1,2088,fond6,DGMB,practice,practiceMilkBad
20,10,Lattebad,34,goodright,23,1,901,bello,DGMB,practice,practiceMilkBad
20,10,Lattebad,36,fondenteright,23,1,608,fond7,DGMB,practice,practiceMilkBad
20,10,Lattebad,38,badleft,18,1,887,odio,DGMB,practice,practiceMilkBad
20,10,Lattebad,40,latteleft,18,1,744,latte3,DGMB,practice,practiceMilkBad
20,10,Lattebad,43,fondenteright,23,1,864,fond1,DGMB,test,testMilkBad
20,10,Lattebad,45,badleft,18,1,596,dolore,DGMB,test,testMilkBad
20,10,Lattebad,47,latteleft,18,1,594,latte2,DGMB,test,testMilkBad
20,10,Lattebad,49,badleft,18,1,775,fallimento,DGMB,test,testMilkBad
20,10,Lattebad,51,fondenteright,23,1,712,fond4,DGMB,test,testMilkBad
20,10,Lattebad,53,goodright,23,1,612,pace,DGMB,test,testMilkBad
20,10,Lattebad,55,latteleft,18,1,717,latte6,DGMB,test,testMilkBad
20,10,Lattebad,57,goodright,18,0,724,stupendo,DGMB,test,testMilkBad
20,10,Lattebad,59,fondenteright,23,1,866,fond2,DGMB,test,testMilkBad
20,10,Lattebad,61,badleft,18,1,895,nocivo,DGMB,test,testMilkBad
20,10,Lattebad,63,latteleft,18,1,639,latte4,DGMB,test,testMilkBad
20,10,Lattebad,65,goodright,23,1,750,amore,DGMB,test,testMilkBad
20,10,Lattebad,67,fondenteright,23,1,626,fond1,DGMB,test,testMilkBad
20,10,Lattebad,69,badleft,18,1,1006,disastro,DGMB,test,testMilkBad
20,10,Lattebad,71,fondenteright,23,1,663,fond7,DGMB,test,testMilkBad
20,10,Lattebad,73,badleft,18,1,979,fastidioso,DGMB,test,testMilkBad
20,10,Lattebad,75,latteleft,18,1,567,latte1,DGMB,test,testMilkBad
20,10,Lattebad,77,goodright,23,1,598,eccellente,DGMB,test,testMilkBad
20,10,Lattebad,79,latteleft,18,1,565,latte5,DGMB,test,testMilkBad
20,10,Lattebad,81,badleft,18,1,980,male,DGMB,test,testMilkBad
20,10,Lattebad,83,latteleft,23,0,655,latte7,DGMB,test,testMilkBad
20,10,Lattebad,85,goodright,18,0,913,ridere,DGMB,test,testMilkBad
20,10,Lattebad,87,fondenteright,18,0,1087,fond5,DGMB,test,testMilkBad
20,10,Lattebad,89,goodright,23,1,957,gioia,DGMB,test,testMilkBad
20,10,Lattebad,91,latteleft,18,1,1083,latte6,DGMB,test,testMilkBad
20,10,Lattebad,93,badleft,23,0,817,schifo,DGMB,test,testMilkBad
20,10,Lattebad,95,fondenteright,23,1,890,fond6,DGMB,test,testMilkBad
20,10,Lattebad,97,goodright,23,1,820,paradiso,DGMB,test,testMilkBad
20,10,Lattebad,99,latteleft,18,1,959,latte2,DGMB,test,testMilkBad
20,10,Lattebad,101,badleft,23,0,886,agonia,DGMB,test,testMilkBad
20,10,Lattebad,103,fondenteright,23,1,551,fond4,DGMB,test,testMilkBad
20,10,Lattebad,105,goodright,23,1,1299,gloria,DGMB,test,testMilkBad
20,10,Lattebad,107,fondenteright,23,1,774,fond3,DGMB,test,testMilkBad
20,10,Lattebad,109,goodright,23,1,951,meraviglioso,DGMB,test,testMilkBad
20,10,Lattebad,111,fondenteright,23,1,526,fond2,DGMB,test,testMilkBad
20,10,Lattebad,113,goodright,18,0,709,amore,DGMB,test,testMilkBad
20,10,Lattebad,115,latteleft,18,1,745,latte3,DGMB,test,testMilkBad
20,10,Lattebad,117,goodright,23,1,925,buono,DGMB,test,testMilkBad
20,10,Lattebad,119,latteleft,18,1,797,latte6,DGMB,test,testMilkBad
20,10,Lattebad,121,badleft,23,0,836,orribile,DGMB,test,testMilkBad
20,14,Fondentebad,2,goodright,23,1,739,piacere,MGDB,practice,practiceMilkGood
20,14,Fondentebad,4,latteright,23,1,527,latte3,MGDB,practice,practiceMilkGood
20,14,Fondentebad,6,goodright,23,1,558,buono,MGDB,practice,practiceMilkGood
20,14,Fondentebad,8,latteright,23,1,477,latte6,MGDB,practice,practiceMilkGood
20,14,Fondentebad,10,badleft,18,1,628,fallimento,MGDB,practice,practiceMilkGood
20,14,Fondentebad,12,fondenteleft,18,1,448,fond3,MGDB,practice,practiceMilkGood
20,14,Fondentebad,14,badleft,18,1,607,agonia,MGDB,practice,practiceMilkGood
20,14,Fondentebad,16,fondenteleft,18,1,457,fond4,MGDB,practice,practiceMilkGood
20,14,Fondentebad,18,goodright,23,1,674,stupendo,MGDB,practice,practiceMilkGood
20,14,Fondentebad,20,fondenteleft,18,1,537,fond1,MGDB,practice,practiceMilkGood
20,14,Fondentebad,22,badleft,18,1,707,odio,MGDB,practice,practiceMilkGood
20,14,Fondentebad,24,latteright,23,1,654,latte7,MGDB,practice,practiceMilkGood
20,14,Fondentebad,26,goodright,23,1,504,gloria,MGDB,practice,practiceMilkGood
20,14,Fondentebad,28,latteright,23,1,516,latte2,MGDB,practice,practiceMilkGood
20,14,Fondentebad,30,badleft,18,1,603,male,MGDB,practice,practiceMilkGood
20,14,Fondentebad,32,fondenteleft,18,1,442,fond7,MGDB,practice,practiceMilkGood
20,14,Fondentebad,34,goodright,23,1,577,paradiso,MGDB,practice,practiceMilkGood
20,14,Fondentebad,36,fondenteleft,18,1,530,fond5,MGDB,practice,practiceMilkGood
20,14,Fondentebad,38,goodright,23,1,556,bello,MGDB,practice,practiceMilkGood
20,14,Fondentebad,40,latteright,23,1,483,latte5,MGDB,practice,practiceMilkGood
20,14,Fondentebad,43,latteright,23,1,509,latte4,MGDB,test,testMilkGood
20,14,Fondentebad,45,badleft,18,1,473,brutto,MGDB,test,testMilkGood
20,14,Fondentebad,47,latteright,23,1,576,latte1,MGDB,test,testMilkGood
20,14,Fondentebad,49,badleft,18,1,594,terribile,MGDB,test,testMilkGood
20,14,Fondentebad,51,latteright,23,1,617,latte4,MGDB,test,testMilkGood
20,14,Fondentebad,53,goodright,23,1,738,felicità,MGDB,test,testMilkGood
20,14,Fondentebad,55,fondenteleft,18,1,566,fond2,MGDB,test,testMilkGood
20,14,Fondentebad,57,goodright,23,1,525,ridere,MGDB,test,testMilkGood
20,14,Fondentebad,59,fondenteleft,18,1,518,fond6,MGDB,test,testMilkGood
20,14,Fondentebad,61,goodright,23,1,766,pace,MGDB,test,testMilkGood
20,14,Fondentebad,63,fondenteleft,18,1,663,fond7,MGDB,test,testMilkGood
20,14,Fondentebad,65,goodright,23,1,691,eccellente,MGDB,test,testMilkGood
20,14,Fondentebad,67,latteright,23,1,436,latte2,MGDB,test,testMilkGood
20,14,Fondentebad,69,badleft,18,1,627,fastidioso,MGDB,test,testMilkGood
20,14,Fondentebad,71,fondenteleft,18,1,415,fond1,MGDB,test,testMilkGood
20,14,Fondentebad,73,badleft,18,1,705,nocivo,MGDB,test,testMilkGood
20,14,Fondentebad,75,latteright,23,1,597,latte5,MGDB,test,testMilkGood
20,14,Fondentebad,77,badleft,18,1,604,disastro,MGDB,test,testMilkGood
20,14,Fondentebad,79,latteright,23,1,462,latte3,MGDB,test,testMilkGood
20,14,Fondentebad,81,goodright,23,1,463,amore,MGDB,test,testMilkGood
20,14,Fondentebad,83,latteright,23,1,436,latte6,MGDB,test,testMilkGood
20,14,Fondentebad,85,badleft,18,1,531,schifo,MGDB,test,testMilkGood
20,14,Fondentebad,87,fondenteleft,18,1,436,fond3,MGDB,test,testMilkGood
20,14,Fondentebad,89,goodright,23,1,595,gioia,MGDB,test,testMilkGood
20,14,Fondentebad,91,fondenteleft,18,1,538,fond4,MGDB,test,testMilkGood
20,14,Fondentebad,93,goodright,23,1,572,meraviglioso,MGDB,test,testMilkGood
20,14,Fondentebad,95,fondenteleft,18,1,589,fond6,MGDB,test,testMilkGood
20,14,Fondentebad,97,badleft,18,1,642,cattivo,MGDB,test,testMilkGood
20,14,Fondentebad,99,latteright,23,1,440,latte7,MGDB,test,testMilkGood
20,14,Fondentebad,101,goodright,23,1,592,pace,MGDB,test,testMilkGood
20,14,Fondentebad,103,fondenteleft,18,1,494,fond2,MGDB,test,testMilkGood
20,14,Fondentebad,105,badleft,18,1,616,orribile,MGDB,test,testMilkGood
20,14,Fondentebad,107,latteright,23,1,497,latte1,MGDB,test,testMilkGood
20,14,Fondentebad,109,goodright,23,1,611,paradiso,MGDB,test,testMilkGood
20,14,Fondentebad,111,latteright,23,1,421,latte4,MGDB,test,testMilkGood
20,14,Fondentebad,113,badleft,18,1,503,dolore,MGDB,test,testMilkGood
20,14,Fondentebad,115,fondenteleft,18,1,851,fond5,MGDB,test,testMilkGood
20,14,Fondentebad,117,badleft,23,0,492,orribile,MGDB,test,testMilkGood
20,14,Fondentebad,119,fondenteleft,18,1,805,fond2,MGDB,test,testMilkGood
20,14,Fondentebad,121,badleft,18,1,804,fastidioso,MGDB,test,testMilkGood
17,10,Lattebad,2,badleft,18,1,2387,odio,DGMB,practice,practiceMilkBad
17,10,Lattebad,4,fondenteright,18,0,1164,fond7,DGMB,practice,practiceMilkBad
17,10,Lattebad,6,badleft,18,1,882,male,DGMB,practice,practiceMilkBad
17,10,Lattebad,8,fondenteright,23,1,729,fond1,DGMB,practice,practiceMilkBad
17,10,Lattebad,10,badleft,18,1,1047,cattivo,DGMB,practice,practiceMilkBad
17,10,Lattebad,12,fondenteright,23,1,608,fond5,DGMB,practice,practiceMilkBad
17,10,Lattebad,14,goodright,23,1,1055,stupendo,DGMB,practice,practiceMilkBad
17,10,Lattebad,16,latteleft,18,1,872,latte4,DGMB,practice,practiceMilkBad
17,10,Lattebad,18,goodright,23,1,900,amore,DGMB,practice,practiceMilkBad
17,10,Lattebad,20,latteleft,18,1,1463,latte7,DGMB,practice,practiceMilkBad
17,10,Lattebad,22,goodright,23,1,799,buono,DGMB,practice,practiceMilkBad
17,10,Lattebad,24,latteleft,18,1,790,latte5,DGMB,practice,practiceMilkBad
17,10,Lattebad,26,goodright,23,1,650,felicità,DGMB,practice,practiceMilkBad
17,10,Lattebad,28,latteleft,18,1,755,latte6,DGMB,practice,practiceMilkBad
17,10,Lattebad,30,badleft,18,1,1351,orribile,DGMB,practice,practiceMilkBad
17,10,Lattebad,32,latteleft,23,0,1082,latte3,DGMB,practice,practiceMilkBad
17,10,Lattebad,34,goodright,23,1,937,paradiso,DGMB,practice,practiceMilkBad
17,10,Lattebad,36,fondenteright,23,1,1353,fond6,DGMB,practice,practiceMilkBad
17,10,Lattebad,38,badleft,18,1,1053,brutto,DGMB,practice,practiceMilkBad
17,10,Lattebad,40,fondenteright,23,1,837,fond4,DGMB,practice,practiceMilkBad
17,10,Lattebad,43,fondenteright,23,1,751,fond3,DGMB,test,testMilkBad
17,10,Lattebad,45,goodright,23,1,875,eccellente,DGMB,test,testMilkBad
17,10,Lattebad,47,fondenteright,23,1,665,fond2,DGMB,test,testMilkBad
17,10,Lattebad,49,badleft,18,1,645,schifo,DGMB,test,testMilkBad
17,10,Lattebad,51,latteleft,18,1,878,latte1,DGMB,test,testMilkBad
17,10,Lattebad,53,badleft,18,1,981,nocivo,DGMB,test,testMilkBad
17,10,Lattebad,55,fondenteright,23,1,768,fond6,DGMB,test,testMilkBad
17,10,Lattebad,57,badleft,18,1,1151,disastro,DGMB,test,testMilkBad
17,10,Lattebad,59,fondenteright,23,1,682,fond2,DGMB,test,testMilkBad
17,10,Lattebad,61,goodright,23,1,601,piacere,DGMB,test,testMilkBad
17,10,Lattebad,63,fondenteright,18,0,1296,fond5,DGMB,test,testMilkBad
17,10,Lattebad,65,badleft,18,1,1177,fallimento,DGMB,test,testMilkBad
17,10,Lattebad,67,fondenteright,23,1,785,fond4,DGMB,test,testMilkBad
17,10,Lattebad,69,goodright,23,1,781,ridere,DGMB,test,testMilkBad
17,10,Lattebad,71,latteleft,18,1,897,latte2,DGMB,test,testMilkBad
17,10,Lattebad,73,badleft,18,1,1626,terribile,DGMB,test,testMilkBad
17,10,Lattebad,75,latteleft,23,0,860,latte6,DGMB,test,testMilkBad
17,10,Lattebad,77,badleft,18,1,2142,agonia,DGMB,test,testMilkBad
17,10,Lattebad,79,latteleft,18,1,855,latte2,DGMB,test,testMilkBad
17,10,Lattebad,81,badleft,18,1,905,fastidioso,DGMB,test,testMilkBad
17,10,Lattebad,83,fondenteright,23,1,684,fond7,DGMB,test,testMilkBad
17,10,Lattebad,85,goodright,23,1,691,bello,DGMB,test,testMilkBad
17,10,Lattebad,87,latteleft,18,1,868,latte5,DGMB,test,testMilkBad
17,10,Lattebad,89,goodright,23,1,712,gioia,DGMB,test,testMilkBad
17,10,Lattebad,91,latteleft,18,1,671,latte3,DGMB,test,testMilkBad
17,10,Lattebad,93,badleft,18,1,995,dolore,DGMB,test,testMilkBad
17,10,Lattebad,95,latteleft,18,1,1225,latte7,DGMB,test,testMilkBad
17,10,Lattebad,97,goodright,18,0,948,meraviglioso,DGMB,test,testMilkBad
17,10,Lattebad,99,fondenteright,23,1,872,fond3,DGMB,test,testMilkBad
17,10,Lattebad,101,goodright,23,1,726,gloria,DGMB,test,testMilkBad
17,10,Lattebad,103,latteleft,18,1,960,latte1,DGMB,test,testMilkBad
17,10,Lattebad,105,goodright,23,1,878,pace,DGMB,test,testMilkBad
17,10,Lattebad,107,latteleft,18,1,860,latte4,DGMB,test,testMilkBad
17,10,Lattebad,109,badleft,18,1,1014,agonia,DGMB,test,testMilkBad
17,10,Lattebad,111,latteleft,18,1,782,latte6,DGMB,test,testMilkBad
17,10,Lattebad,113,badleft,18,1,722,disastro,DGMB,test,testMilkBad
17,10,Lattebad,115,fondenteright,23,1,729,fond1,DGMB,test,testMilkBad
17,10,Lattebad,117,goodright,23,1,791,buono,DGMB,test,testMilkBad
17,10,Lattebad,119,fondenteright,23,1,870,fond4,DGMB,test,testMilkBad
17,10,Lattebad,121,goodright,23,1,578,felicità,DGMB,test,testMilkBad
17,14,Fondentebad,2,badleft,18,1,749,terribile,MGDB,practice,practiceMilkGood
17,14,Fondentebad,4,fondenteleft,18,1,516,fond4,MGDB,practice,practiceMilkGood
17,14,Fondentebad,6,goodright,23,1,571,buono,MGDB,practice,practiceMilkGood
17,14,Fondentebad,8,fondenteleft,18,1,445,fond7,MGDB,practice,practiceMilkGood
17,14,Fondentebad,10,badleft,18,1,564,fallimento,MGDB,practice,practiceMilkGood
17,14,Fondentebad,12,latteright,23,1,498,latte6,MGDB,practice,practiceMilkGood
17,14,Fondentebad,14,goodright,23,1,580,felicità,MGDB,practice,practiceMilkGood
17,14,Fondentebad,16,fondenteleft,18,1,385,fond3,MGDB,practice,practiceMilkGood
17,14,Fondentebad,18,badleft,18,1,621,odio,MGDB,practice,practiceMilkGood
17,14,Fondentebad,20,fondenteleft,18,1,417,fond6,MGDB,practice,practiceMilkGood
17,14,Fondentebad,22,goodright,23,1,491,meraviglioso,MGDB,practice,practiceMilkGood
17,14,Fondentebad,24,latteright,23,1,437,latte1,MGDB,practice,practiceMilkGood
17,14,Fondentebad,26,badleft,18,1,628,cattivo,MGDB,practice,practiceMilkGood
17,14,Fondentebad,28,latteright,23,1,432,latte2,MGDB,practice,practiceMilkGood
17,14,Fondentebad,30,goodright,23,1,764,eccellente,MGDB,practice,practiceMilkGood
17,14,Fondentebad,32,fondenteleft,18,1,386,fond2,MGDB,practice,practiceMilkGood
17,14,Fondentebad,34,goodright,23,1,511,gloria,MGDB,practice,practiceMilkGood
17,14,Fondentebad,36,fondenteleft,18,1,422,fond5,MGDB,practice,practiceMilkGood
17,14,Fondentebad,38,goodright,23,1,619,piacere,MGDB,practice,practiceMilkGood
17,14,Fondentebad,40,latteright,23,1,623,latte4,MGDB,practice,practiceMilkGood
17,14,Fondentebad,43,latteright,23,1,761,latte7,MGDB,test,testMilkGood
17,14,Fondentebad,45,badleft,18,1,567,dolore,MGDB,test,testMilkGood
17,14,Fondentebad,47,latteright,23,1,505,latte5,MGDB,test,testMilkGood
17,14,Fondentebad,49,badleft,18,1,477,schifo,MGDB,test,testMilkGood
17,14,Fondentebad,51,latteright,23,1,404,latte3,MGDB,test,testMilkGood
17,14,Fondentebad,53,badleft,18,1,395,male,MGDB,test,testMilkGood
17,14,Fondentebad,55,latteright,23,1,483,latte6,MGDB,test,testMilkGood
17,14,Fondentebad,57,goodright,23,1,506,gioia,MGDB,test,testMilkGood
17,14,Fondentebad,59,fondenteleft,18,1,438,fond1,MGDB,test,testMilkGood
17,14,Fondentebad,61,goodright,23,1,445,pace,MGDB,test,testMilkGood
17,14,Fondentebad,63,fondenteleft,18,1,535,fond5,MGDB,test,testMilkGood
17,14,Fondentebad,65,goodright,23,1,432,paradiso,MGDB,test,testMilkGood
17,14,Fondentebad,67,fondenteleft,18,1,487,fond1,MGDB,test,testMilkGood
17,14,Fondentebad,69,badleft,18,1,598,nocivo,MGDB,test,testMilkGood
17,14,Fondentebad,71,fondenteleft,18,1,373,fond4,MGDB,test,testMilkGood
17,14,Fondentebad,73,badleft,18,1,439,orribile,MGDB,test,testMilkGood
17,14,Fondentebad,75,fondenteleft,18,1,422,fond2,MGDB,test,testMilkGood
17,14,Fondentebad,77,badleft,18,1,443,disastro,MGDB,test,testMilkGood
17,14,Fondentebad,79,latteright,23,1,458,latte2,MGDB,test,testMilkGood
17,14,Fondentebad,81,goodright,23,1,484,stupendo,MGDB,test,testMilkGood
17,14,Fondentebad,83,latteright,23,1,450,latte7,MGDB,test,testMilkGood
17,14,Fondentebad,85,badleft,18,1,556,fastidioso,MGDB,test,testMilkGood
17,14,Fondentebad,87,latteright,23,1,451,latte1,MGDB,test,testMilkGood
17,14,Fondentebad,89,goodright,23,1,501,bello,MGDB,test,testMilkGood
17,14,Fondentebad,91,latteright,18,0,473,latte3,MGDB,test,testMilkGood
17,14,Fondentebad,93,badleft,18,1,566,brutto,MGDB,test,testMilkGood
17,14,Fondentebad,95,latteright,23,1,423,latte5,MGDB,test,testMilkGood
17,14,Fondentebad,97,goodright,23,1,660,amore,MGDB,test,testMilkGood
17,14,Fondentebad,99,fondenteleft,18,1,472,fond3,MGDB,test,testMilkGood
17,14,Fondentebad,101,badleft,18,1,612,agonia,MGDB,test,testMilkGood
17,14,Fondentebad,103,fondenteleft,23,0,397,fond7,MGDB,test,testMilkGood
17,14,Fondentebad,105,goodright,23,1,781,ridere,MGDB,test,testMilkGood
17,14,Fondentebad,107,latteright,23,1,592,latte4,MGDB,test,testMilkGood
17,14,Fondentebad,109,badleft,18,1,589,schifo,MGDB,test,testMilkGood
17,14,Fondentebad,111,fondenteleft,18,1,465,fond6,MGDB,test,testMilkGood
17,14,Fondentebad,113,goodright,23,1,509,piacere,MGDB,test,testMilkGood
17,14,Fondentebad,115,fondenteleft,18,1,425,fond3,MGDB,test,testMilkGood
17,14,Fondentebad,117,goodright,23,1,526,gloria,MGDB,test,testMilkGood
17,14,Fondentebad,119,latteright,23,1,551,latte2,MGDB,test,testMilkGood
17,14,Fondentebad,121,badleft,18,1,460,fallimento,MGDB,test,testMilkGood
25,20,Lattebad,2,goodright,23,1,1337,felicità,DGMB,practice,practiceMilkBad
25,20,Lattebad,4,fondenteright,23,1,460,fond6,DGMB,practice,practiceMilkBad
25,20,Lattebad,6,goodright,23,1,670,gloria,DGMB,practice,practiceMilkBad
25,20,Lattebad,8,fondenteright,23,1,449,fond2,DGMB,practice,practiceMilkBad
25,20,Lattebad,10,goodright,23,1,531,bello,DGMB,practice,practiceMilkBad
25,20,Lattebad,12,fondenteright,23,1,509,fond7,DGMB,practice,practiceMilkBad
25,20,Lattebad,14,badleft,18,1,545,nocivo,DGMB,practice,practiceMilkBad
25,20,Lattebad,16,latteleft,18,1,421,latte6,DGMB,practice,practiceMilkBad
25,20,Lattebad,18,badleft,18,1,471,orribile,DGMB,practice,practiceMilkBad
25,20,Lattebad,20,latteleft,18,1,390,latte3,DGMB,practice,practiceMilkBad
25,20,Lattebad,22,goodright,23,1,523,amore,DGMB,practice,practiceMilkBad
25,20,Lattebad,24,latteleft,23,0,1186,latte1,DGMB,practice,practiceMilkBad
25,20,Lattebad,26,goodright,23,1,1573,buono,DGMB,practice,practiceMilkBad
25,20,Lattebad,28,fondenteright,23,1,637,fond4,DGMB,practice,practiceMilkBad
25,20,Lattebad,30,goodright,23,1,876,eccellente,DGMB,practice,practiceMilkBad
25,20,Lattebad,32,latteleft,18,1,626,latte7,DGMB,practice,practiceMilkBad
25,20,Lattebad,34,badleft,18,1,518,brutto,DGMB,practice,practiceMilkBad
25,20,Lattebad,36,latteleft,18,1,397,latte2,DGMB,practice,practiceMilkBad
25,20,Lattebad,38,badleft,18,1,445,fastidioso,DGMB,practice,practiceMilkBad
25,20,Lattebad,40,fondenteright,18,0,446,fond3,DGMB,practice,practiceMilkBad
25,20,Lattebad,43,fondenteright,23,1,1784,fond1,DGMB,test,testMilkBad
25,20,Lattebad,45,goodright,23,1,611,stupendo,DGMB,test,testMilkBad
25,20,Lattebad,47,fondenteright,23,1,540,fond5,DGMB,test,testMilkBad
25,20,Lattebad,49,badleft,18,1,822,male,DGMB,test,testMilkBad
25,20,Lattebad,51,fondenteright,23,1,658,fond5,DGMB,test,testMilkBad
25,20,Lattebad,53,badleft,18,1,699,disastro,DGMB,test,testMilkBad
25,20,Lattebad,55,fondenteright,23,1,1103,fond3,DGMB,test,testMilkBad
25,20,Lattebad,57,badleft,18,1,1787,dolore,DGMB,test,testMilkBad
25,20,Lattebad,59,fondenteright,23,1,1445,fond2,DGMB,test,testMilkBad
25,20,Lattebad,61,goodright,23,1,755,meraviglioso,DGMB,test,testMilkBad
25,20,Lattebad,63,fondenteright,23,1,761,fond1,DGMB,test,testMilkBad
25,20,Lattebad,65,goodright,18,0,848,paradiso,DGMB,test,testMilkBad
25,20,Lattebad,67,latteleft,18,1,705,latte4,DGMB,test,testMilkBad
25,20,Lattebad,69,goodright,23,1,861,piacere,DGMB,test,testMilkBad
25,20,Lattebad,71,latteleft,23,0,409,latte5,DGMB,test,testMilkBad
25,20,Lattebad,73,badleft,18,1,1027,terribile,DGMB,test,testMilkBad
25,20,Lattebad,75,latteleft,18,1,1310,latte4,DGMB,test,testMilkBad
25,20,Lattebad,77,goodright,23,1,921,ridere,DGMB,test,testMilkBad
25,20,Lattebad,79,fondenteright,23,1,512,fond6,DGMB,test,testMilkBad
25,20,Lattebad,81,badleft,18,1,628,cattivo,DGMB,test,testMilkBad
25,20,Lattebad,83,latteleft,18,1,464,latte1,DGMB,test,testMilkBad
25,20,Lattebad,85,badleft,18,1,644,fallimento,DGMB,test,testMilkBad
25,20,Lattebad,87,fondenteright,23,1,534,fond4,DGMB,test,testMilkBad
25,20,Lattebad,89,badleft,18,1,631,odio,DGMB,test,testMilkBad
25,20,Lattebad,91,latteleft,18,1,790,latte6,DGMB,test,testMilkBad
25,20,Lattebad,93,badleft,18,1,674,schifo,DGMB,test,testMilkBad
25,20,Lattebad,95,latteleft,18,1,641,latte3,DGMB,test,testMilkBad
25,20,Lattebad,97,badleft,18,1,607,agonia,DGMB,test,testMilkBad
25,20,Lattebad,99,latteleft,18,1,505,latte7,DGMB,test,testMilkBad
25,20,Lattebad,101,badleft,18,1,597,schifo,DGMB,test,testMilkBad
25,20,Lattebad,103,latteleft,18,1,508,latte5,DGMB,test,testMilkBad
25,20,Lattebad,105,goodright,18,0,920,gioia,DGMB,test,testMilkBad
25,20,Lattebad,107,fondenteright,23,1,719,fond7,DGMB,test,testMilkBad
25,20,Lattebad,109,goodright,23,1,1013,pace,DGMB,test,testMilkBad
25,20,Lattebad,111,latteleft,18,1,518,latte2,DGMB,test,testMilkBad
25,20,Lattebad,113,badleft,18,1,629,orribile,DGMB,test,testMilkBad
25,20,Lattebad,115,latteleft,18,1,793,latte5,DGMB,test,testMilkBad
25,20,Lattebad,117,goodright,23,1,621,meraviglioso,DGMB,test,testMilkBad
25,20,Lattebad,119,fondenteright,23,1,497,fond7,DGMB,test,testMilkBad
25,20,Lattebad,121,goodright,23,1,619,eccellente,DGMB,test,testMilkBad
25,24,Fondentebad,2,badleft,18,1,752,brutto,MGDB,practice,practiceMilkGood
25,24,Fondentebad,4,fondenteleft,18,1,422,fond7,MGDB,practice,practiceMilkGood
25,24,Fondentebad,6,goodright,23,1,667,stupendo,MGDB,practice,practiceMilkGood
25,24,Fondentebad,8,fondenteleft,18,1,663,fond6,MGDB,practice,practiceMilkGood
25,24,Fondentebad,10,badleft,18,1,739,fastidioso,MGDB,practice,practiceMilkGood
25,24,Fondentebad,12,fondenteleft,18,1,575,fond3,MGDB,practice,practiceMilkGood
25,24,Fondentebad,14,badleft,18,1,545,terribile,MGDB,practice,practiceMilkGood
25,24,Fondentebad,16,fondenteleft,18,1,485,fond5,MGDB,practice,practiceMilkGood
25,24,Fondentebad,18,goodright,23,1,780,ridere,MGDB,practice,practiceMilkGood
25,24,Fondentebad,20,latteright,23,1,1080,latte4,MGDB,practice,practiceMilkGood
25,24,Fondentebad,22,badleft,18,1,606,orribile,MGDB,practice,practiceMilkGood
25,24,Fondentebad,24,latteright,23,1,575,latte7,MGDB,practice,practiceMilkGood
25,24,Fondentebad,26,goodright,23,1,641,piacere,MGDB,practice,practiceMilkGood
25,24,Fondentebad,28,fondenteleft,18,1,432,fond2,MGDB,practice,practiceMilkGood
25,24,Fondentebad,30,goodright,23,1,684,gioia,MGDB,practice,practiceMilkGood
25,24,Fondentebad,32,fondenteleft,18,1,846,fond4,MGDB,practice,practiceMilkGood
25,24,Fondentebad,34,goodright,23,1,572,gloria,MGDB,practice,practiceMilkGood
25,24,Fondentebad,36,fondenteleft,18,1,550,fond1,MGDB,practice,practiceMilkGood
25,24,Fondentebad,38,badleft,18,1,1346,nocivo,MGDB,practice,practiceMilkGood
25,24,Fondentebad,40,latteright,23,1,477,latte1,MGDB,practice,practiceMilkGood
25,24,Fondentebad,43,latteright,23,1,628,latte2,MGDB,test,testMilkGood
25,24,Fondentebad,45,badleft,18,1,640,disastro,MGDB,test,testMilkGood
25,24,Fondentebad,47,latteright,23,1,471,latte6,MGDB,test,testMilkGood
25,24,Fondentebad,49,goodright,23,1,539,pace,MGDB,test,testMilkGood
25,24,Fondentebad,51,fondenteleft,18,1,431,fond7,MGDB,test,testMilkGood
25,24,Fondentebad,53,badleft,18,1,428,male,MGDB,test,testMilkGood
25,24,Fondentebad,55,fondenteleft,18,1,440,fond5,MGDB,test,testMilkGood
25,24,Fondentebad,57,goodright,23,1,479,eccellente,MGDB,test,testMilkGood
25,24,Fondentebad,59,fondenteleft,18,1,446,fond6,MGDB,test,testMilkGood
25,24,Fondentebad,61,badleft,18,1,694,cattivo,MGDB,test,testMilkGood
25,24,Fondentebad,63,latteright,23,1,479,latte5,MGDB,test,testMilkGood
25,24,Fondentebad,65,badleft,18,1,542,dolore,MGDB,test,testMilkGood
25,24,Fondentebad,67,latteright,23,1,506,latte3,MGDB,test,testMilkGood
25,24,Fondentebad,69,goodright,18,0,302,bello,MGDB,test,testMilkGood
25,24,Fondentebad,71,latteright,23,1,923,latte5,MGDB,test,testMilkGood
25,24,Fondentebad,73,goodright,23,1,466,felicità,MGDB,test,testMilkGood
25,24,Fondentebad,75,latteright,23,1,414,latte6,MGDB,test,testMilkGood
25,24,Fondentebad,77,goodright,23,1,504,buono,MGDB,test,testMilkGood
25,24,Fondentebad,79,fondenteleft,18,1,588,fond3,MGDB,test,testMilkGood
25,24,Fondentebad,81,goodright,23,1,520,meraviglioso,MGDB,test,testMilkGood
25,24,Fondentebad,83,fondenteleft,18,1,455,fond2,MGDB,test,testMilkGood
25,24,Fondentebad,85,badleft,18,1,561,schifo,MGDB,test,testMilkGood
25,24,Fondentebad,87,fondenteleft,18,1,352,fond1,MGDB,test,testMilkGood
25,24,Fondentebad,89,badleft,18,1,357,odio,MGDB,test,testMilkGood
25,24,Fondentebad,91,fondenteleft,18,1,395,fond4,MGDB,test,testMilkGood
25,24,Fondentebad,93,badleft,23,0,507,agonia,MGDB,test,testMilkGood
25,24,Fondentebad,95,latteright,23,1,703,latte7,MGDB,test,testMilkGood
25,24,Fondentebad,97,goodright,23,1,611,paradiso,MGDB,test,testMilkGood
25,24,Fondentebad,99,latteright,23,1,468,latte2,MGDB,test,testMilkGood
25,24,Fondentebad,101,goodright,23,1,577,amore,MGDB,test,testMilkGood
25,24,Fondentebad,103,latteright,23,1,338,latte3,MGDB,test,testMilkGood
25,24,Fondentebad,105,badleft,18,1,572,fallimento,MGDB,test,testMilkGood
25,24,Fondentebad,107,fondenteleft,18,1,574,fond3,MGDB,test,testMilkGood
25,24,Fondentebad,109,badleft,18,1,567,orribile,MGDB,test,testMilkGood
25,24,Fondentebad,111,latteright,23,1,737,latte1,MGDB,test,testMilkGood
25,24,Fondentebad,113,badleft,18,1,842,schifo,MGDB,test,testMilkGood
25,24,Fondentebad,115,latteright,23,1,737,latte4,MGDB,test,testMilkGood
25,24,Fondentebad,117,goodright,23,1,578,ridere,MGDB,test,testMilkGood
25,24,Fondentebad,119,latteright,23,1,406,latte1,MGDB,test,testMilkGood
25,24,Fondentebad,121,goodright,23,1,477,buono,MGDB,test,testMilkGood
30,20,Fondentebad,2,goodright,23,1,1535,gioia,MGDB,practice,practiceMilkGood
30,20,Fondentebad,4,fondenteleft,18,1,586,fond6,MGDB,practice,practiceMilkGood
30,20,Fondentebad,6,goodright,23,1,623,buono,MGDB,practice,practiceMilkGood
30,20,Fondentebad,8,latteright,23,1,987,latte1,MGDB,practice,practiceMilkGood
30,20,Fondentebad,10,badleft,18,1,790,disastro,MGDB,practice,practiceMilkGood
30,20,Fondentebad,12,latteright,23,1,514,latte6,MGDB,practice,practiceMilkGood
30,20,Fondentebad,14,badleft,18,1,703,brutto,MGDB,practice,practiceMilkGood
30,20,Fondentebad,16,fondenteleft,18,1,770,fond5,MGDB,practice,practiceMilkGood
30,20,Fondentebad,18,badleft,18,1,1100,male,MGDB,practice,practiceMilkGood
30,20,Fondentebad,20,fondenteleft,18,1,663,fond3,MGDB,practice,practiceMilkGood
30,20,Fondentebad,22,badleft,18,1,795,fallimento,MGDB,practice,practiceMilkGood
30,20,Fondentebad,24,latteright,23,1,682,latte7,MGDB,practice,practiceMilkGood
30,20,Fondentebad,26,badleft,18,1,600,terribile,MGDB,practice,practiceMilkGood
30,20,Fondentebad,28,fondenteleft,18,1,1047,fond7,MGDB,practice,practiceMilkGood
30,20,Fondentebad,30,badleft,18,1,702,schifo,MGDB,practice,practiceMilkGood
30,20,Fondentebad,32,fondenteleft,18,1,505,fond4,MGDB,practice,practiceMilkGood
30,20,Fondentebad,34,goodright,23,1,558,bello,MGDB,practice,practiceMilkGood
30,20,Fondentebad,36,fondenteleft,18,1,709,fond1,MGDB,practice,practiceMilkGood
30,20,Fondentebad,38,goodright,23,1,1273,gloria,MGDB,practice,practiceMilkGood
30,20,Fondentebad,40,fondenteleft,18,1,550,fond2,MGDB,practice,practiceMilkGood
30,20,Fondentebad,43,latteright,23,1,671,latte4,MGDB,test,testMilkGood
30,20,Fondentebad,45,badleft,18,1,660,dolore,MGDB,test,testMilkGood
30,20,Fondentebad,47,latteright,23,1,696,latte5,MGDB,test,testMilkGood
30,20,Fondentebad,49,badleft,18,1,537,orribile,MGDB,test,testMilkGood
30,20,Fondentebad,51,fondenteleft,18,1,594,fond4,MGDB,test,testMilkGood
30,20,Fondentebad,53,badleft,18,1,623,odio,MGDB,test,testMilkGood
30,20,Fondentebad,55,latteright,23,1,531,latte3,MGDB,test,testMilkGood
30,20,Fondentebad,57,badleft,18,1,541,nocivo,MGDB,test,testMilkGood
30,20,Fondentebad,59,fondenteleft,18,1,585,fond3,MGDB,test,testMilkGood
30,20,Fondentebad,61,badleft,18,1,653,fastidioso,MGDB,test,testMilkGood
30,20,Fondentebad,63,latteright,23,1,462,latte2,MGDB,test,testMilkGood
30,20,Fondentebad,65,goodright,23,1,491,paradiso,MGDB,test,testMilkGood
30,20,Fondentebad,67,fondenteleft,18,1,436,fond2,MGDB,test,testMilkGood
30,20,Fondentebad,69,goodright,23,1,580,ridere,MGDB,test,testMilkGood
30,20,Fondentebad,71,latteright,23,1,560,latte6,MGDB,test,testMilkGood
30,20,Fondentebad,73,goodright,23,1,607,eccellente,MGDB,test,testMilkGood
30,20,Fondentebad,75,fondenteleft,18,1,576,fond5,MGDB,test,testMilkGood
30,20,Fondentebad,77,badleft,18,1,450,cattivo,MGDB,test,testMilkGood
30,20,Fondentebad,79,fondenteleft,18,1,491,fond6,MGDB,test,testMilkGood
30,20,Fondentebad,81,badleft,18,1,493,agonia,MGDB,test,testMilkGood
30,20,Fondentebad,83,latteright,23,1,455,latte5,MGDB,test,testMilkGood
30,20,Fondentebad,85,goodright,23,1,536,piacere,MGDB,test,testMilkGood
30,20,Fondentebad,87,latteright,23,1,530,latte1,MGDB,test,testMilkGood
30,20,Fondentebad,89,goodright,23,1,676,stupendo,MGDB,test,testMilkGood
30,20,Fondentebad,91,latteright,23,1,466,latte7,MGDB,test,testMilkGood
30,20,Fondentebad,93,badleft,18,1,463,agonia,MGDB,test,testMilkGood
30,20,Fondentebad,95,fondenteleft,18,1,411,fond1,MGDB,test,testMilkGood
30,20,Fondentebad,97,goodright,23,1,573,meraviglioso,MGDB,test,testMilkGood
30,20,Fondentebad,99,latteright,23,1,374,latte2,MGDB,test,testMilkGood
30,20,Fondentebad,101,goodright,23,1,760,amore,MGDB,test,testMilkGood
30,20,Fondentebad,103,fondenteleft,18,1,431,fond7,MGDB,test,testMilkGood
30,20,Fondentebad,105,goodright,23,1,531,pace,MGDB,test,testMilkGood
30,20,Fondentebad,107,latteright,23,1,685,latte3,MGDB,test,testMilkGood
30,20,Fondentebad,109,goodright,23,1,588,felicità,MGDB,test,testMilkGood
30,20,Fondentebad,111,latteright,23,1,376,latte4,MGDB,test,testMilkGood
30,20,Fondentebad,113,goodright,23,1,522,ridere,MGDB,test,testMilkGood
30,20,Fondentebad,115,fondenteleft,18,1,433,fond6,MGDB,test,testMilkGood
30,20,Fondentebad,117,badleft,18,1,621,odio,MGDB,test,testMilkGood
30,20,Fondentebad,119,latteright,23,1,521,latte7,MGDB,test,testMilkGood
30,20,Fondentebad,121,goodright,23,1,872,stupendo,MGDB,test,testMilkGood
30,24,Lattebad,2,goodright,23,1,2483,felicità,DGMB,practice,practiceMilkBad
30,24,Lattebad,4,latteleft,18,1,858,latte4,DGMB,practice,practiceMilkBad
30,24,Lattebad,6,badleft,18,1,1396,schifo,DGMB,practice,practiceMilkBad
30,24,Lattebad,8,latteleft,18,1,842,latte2,DGMB,practice,practiceMilkBad
30,24,Lattebad,10,goodright,23,1,1120,amore,DGMB,practice,practiceMilkBad
30,24,Lattebad,12,latteleft,18,1,1262,latte3,DGMB,practice,practiceMilkBad
30,24,Lattebad,14,badleft,18,1,1982,nocivo,DGMB,practice,practiceMilkBad
30,24,Lattebad,16,fondenteright,23,1,832,fond4,DGMB,practice,practiceMilkBad
30,24,Lattebad,18,goodright,23,1,924,gloria,DGMB,practice,practiceMilkBad
30,24,Lattebad,20,latteleft,18,1,594,latte1,DGMB,practice,practiceMilkBad
30,24,Lattebad,22,badleft,18,1,871,odio,DGMB,practice,practiceMilkBad
30,24,Lattebad,24,fondenteright,18,0,770,fond3,DGMB,practice,practiceMilkBad
30,24,Lattebad,26,goodright,23,1,1764,bello,DGMB,practice,practiceMilkBad
30,24,Lattebad,28,latteleft,18,1,1865,latte7,DGMB,practice,practiceMilkBad
30,24,Lattebad,30,goodright,23,1,1595,buono,DGMB,practice,practiceMilkBad
30,24,Lattebad,32,latteleft,18,1,888,latte6,DGMB,practice,practiceMilkBad
