"participant","block","trial","correct","latency"
4,"test.sc_dark.Darkbad","darkleft",1,461
4,"test.sc_dark.Darkbad","badleft",1,1495
4,"test.sc_dark.Darkbad","darkleft",1,639
4,"test.sc_dark.Darkbad","badleft",1,573
4,"test.sc_dark.Darkbad","goodright",1,671
4,"test.sc_dark.Darkbad","badleft",1,643
4,"test.sc_dark.Darkbad","darkleft",1,714
4,"test.sc_dark.Darkbad","goodright",1,1190
4,"test.sc_dark.Darkbad","darkleft",1,625
4,"test.sc_dark.Darkbad","darkleft",1,517
4,"test.sc_dark.Darkbad","goodright",1,700
4,"test.sc_dark.Darkbad","goodright",1,950
4,"test.sc_dark.Darkbad","badleft",1,617
4,"test.sc_dark.Darkbad","darkleft",0,834
4,"test.sc_dark.Darkbad","darkleft",1,737
4,"test.sc_dark.Darkbad","darkleft",1,474
4,"test.sc_dark.Darkbad","goodright",1,727
4,"test.sc_dark.Darkbad","badleft",1,853
4,"test.sc_dark.Darkbad","badleft",1,991
4,"test.sc_dark.Darkbad","badleft",1,674
4,"test.sc_dark.Darkbad","goodright",1,678
4,"test.sc_dark.Darkbad","badleft",1,717
4,"test.sc_dark.Darkbad","darkleft",1,692
4,"test.sc_dark.Darkbad","goodright",1,645
4,"test.sc_dark.Darkbad","goodright",1,1508
4,"test.sc_dark.Darkbad","badleft",1,615
4,"test.sc_dark.Darkbad","darkleft",0,1056
4,"test.sc_dark.Darkbad","badleft",1,1305
4,"test.sc_dark.Darkbad","goodright",1,852
4,"test.sc_dark.Darkbad","goodright",1,1509
4,"test.sc_dark.Darkbad","goodright",1,2824
4,"test.sc_dark.Darkbad","darkleft",1,688
4,"test.sc_dark.Darkbad","badleft",1,615
4,"test.sc_dark.Darkbad","badleft",1,625
4,"test.sc_dark.Darkbad","goodright",1,813
4,"test.sc_dark.Darkbad","goodright",1,862
4,"test.sc_dark.Darkbad","goodright",1,631
4,"test.sc_dark.Darkbad","goodright",1,691
4,"test.sc_dark.Darkbad","goodright",1,861
4,"test.sc_dark.Darkbad","badleft",1,606
4,"test.sc_dark.Darkbad","goodright",1,629
4,"test.sc_dark.Darkbad","goodright",1,665
4,"test.sc_dark.Darkbad","goodright",1,565
4,"test.sc_dark.Darkbad","darkleft",1,694
4,"test.sc_dark.Darkbad","badleft",1,1224
4,"test.sc_dark.Darkbad","badleft",1,571
4,"test.sc_dark.Darkbad","darkleft",1,469
4,"test.sc_dark.Darkbad","goodright",1,609
4,"test.sc_dark.Darkbad","goodright",1,554
4,"test.sc_dark.Darkbad","goodright",1,623
4,"test.sc_dark.Darkbad","badleft",0,491
4,"test.sc_dark.Darkbad","badleft",0,717
4,"test.sc_dark.Darkbad","goodright",1,2075
4,"test.sc_dark.Darkbad","darkleft",1,592
4,"test.sc_dark.Darkbad","goodright",1,732
4,"test.sc_dark.Darkbad","badleft",1,589
4,"test.sc_dark.Darkbad","goodright",1,689
4,"test.sc_dark.Darkbad","goodright",1,947
4,"test.sc_dark.Darkbad","darkleft",1,2574
4,"test.sc_dark.Darkbad","goodright",1,973
4,"test.sc_dark.Darkbad","darkleft",1,534
4,"test.sc_dark.Darkbad","goodright",1,568
4,"test.sc_dark.Darkbad","badleft",1,598
4,"test.sc_dark.Darkbad","darkleft",1,757
4,"test.sc_dark.Darkbad","goodright",1,588
4,"test.sc_dark.Darkbad","darkleft",1,824
4,"test.sc_dark.Darkbad","darkleft",1,468
4,"test.sc_dark.Darkbad","badleft",1,704
4,"test.sc_dark.Darkbad","darkleft",1,780
4,"test.sc_dark.Darkbad","goodright",1,549
4,"test.sc_dark.Darkbad","darkleft",1,562
4,"test.sc_dark.Darkbad","badleft",1,665
4,"test.sc_dark.Darkgood","darkright",1,624
4,"test.sc_dark.Darkgood","badleft",1,588
4,"test.sc_dark.Darkgood","darkright",1,672
4,"test.sc_dark.Darkgood","badleft",1,693
4,"test.sc_dark.Darkgood","goodright",1,566
4,"test.sc_dark.Darkgood","goodright",1,541
4,"test.sc_dark.Darkgood","badleft",1,630
4,"test.sc_dark.Darkgood","goodright",1,707
4,"test.sc_dark.Darkgood","goodright",1,654
4,"test.sc_dark.Darkgood","darkright",1,680
4,"test.sc_dark.Darkgood","badleft",1,631
4,"test.sc_dark.Darkgood","badleft",1,651
4,"test.sc_dark.Darkgood","badleft",1,540
4,"test.sc_dark.Darkgood","badleft",1,854
4,"test.sc_dark.Darkgood","goodright",1,1063
4,"test.sc_dark.Darkgood","badleft",1,594
4,"test.sc_dark.Darkgood","darkright",1,793
4,"test.sc_dark.Darkgood","goodright",1,589
4,"test.sc_dark.Darkgood","badleft",1,561
4,"test.sc_dark.Darkgood","goodright",1,824
4,"test.sc_dark.Darkgood","badleft",1,836
4,"test.sc_dark.Darkgood","darkright",1,610
4,"test.sc_dark.Darkgood","goodright",1,812
4,"test.sc_dark.Darkgood","badleft",1,549
4,"test.sc_dark.Darkgood","darkright",1,433
4,"test.sc_dark.Darkgood","darkright",1,584
4,"test.sc_dark.Darkgood","goodright",1,813
4,"test.sc_dark.Darkgood","badleft",1,574
4,"test.sc_dark.Darkgood","badleft",1,663
4,"test.sc_dark.Darkgood","badleft",1,732
4,"test.sc_dark.Darkgood","darkright",1,685
4,"test.sc_dark.Darkgood","badleft",1,572
4,"test.sc_dark.Darkgood","badleft",1,637
4,"test.sc_dark.Darkgood","badleft",1,596
4,"test.sc_dark.Darkgood","badleft",1,651
4,"test.sc_dark.Darkgood","darkright",1,644
4,"test.sc_dark.Darkgood","badleft",1,667
4,"test.sc_dark.Darkgood","goodright",1,815
4,"test.sc_dark.Darkgood","goodright",1,744
4,"test.sc_dark.Darkgood","darkright",1,620
4,"test.sc_dark.Darkgood","darkright",1,496
4,"test.sc_dark.Darkgood","badleft",1,642
4,"test.sc_dark.Darkgood","badleft",1,609
4,"test.sc_dark.Darkgood","badleft",1,527
4,"test.sc_dark.Darkgood","goodright",1,678
4,"test.sc_dark.Darkgood","darkright",1,589
4,"test.sc_dark.Darkgood","darkright",1,593
4,"test.sc_dark.Darkgood","goodright",1,822
4,"test.sc_dark.Darkgood","goodright",1,575
4,"test.sc_dark.Darkgood","badleft",1,760
4,"test.sc_dark.Darkgood","goodright",1,695
4,"test.sc_dark.Darkgood","badleft",1,576
4,"test.sc_dark.Darkgood","goodright",1,570
4,"test.sc_dark.Darkgood","darkright",1,603
4,"test.sc_dark.Darkgood","darkright",1,490
4,"test.sc_dark.Darkgood","goodright",1,620
4,"test.sc_dark.Darkgood","darkright",1,496
4,"test.sc_dark.Darkgood","darkright",1,458
4,"test.sc_dark.Darkgood","goodright",1,675
4,"test.sc_dark.Darkgood","goodright",1,703
4,"test.sc_dark.Darkgood","goodright",1,947
4,"test.sc_dark.Darkgood","badleft",1,703
4,"test.sc_dark.Darkgood","darkright",1,499
4,"test.sc_dark.Darkgood","darkright",1,495
4,"test.sc_dark.Darkgood","badleft",1,785
4,"test.sc_dark.Darkgood","badleft",1,1421
4,"test.sc_dark.Darkgood","badleft",1,829
4,"test.sc_dark.Darkgood","goodright",1,505
4,"test.sc_dark.Darkgood","badleft",1,549
4,"test.sc_dark.Darkgood","darkright",1,458
4,"test.sc_dark.Darkgood","badleft",1,579
4,"test.sc_dark.Darkgood","darkright",1,488
6,"test.sc_dark.Darkbad","goodright",1,648
6,"test.sc_dark.Darkbad","goodright",1,647
6,"test.sc_dark.Darkbad","badleft",1,502
6,"test.sc_dark.Darkbad","goodright",1,591
6,"test.sc_dark.Darkbad","goodright",1,548
6,"test.sc_dark.Darkbad","goodright",1,536
6,"test.sc_dark.Darkbad","goodright",1,1170
6,"test.sc_dark.Darkbad","darkleft",1,778
6,"test.sc_dark.Darkbad","goodright",1,1505
6,"test.sc_dark.Darkbad","darkleft",1,459
6,"test.sc_dark.Darkbad","badleft",1,653
6,"test.sc_dark.Darkbad","goodright",1,583
6,"test.sc_dark.Darkbad","darkleft",1,539
6,"test.sc_dark.Darkbad","badleft",1,533
6,"test.sc_dark.Darkbad","badleft",1,790
6,"test.sc_dark.Darkbad","badleft",1,466
6,"test.sc_dark.Darkbad","goodright",1,622
6,"test.sc_dark.Darkbad","goodright",1,467
6,"test.sc_dark.Darkbad","goodright",1,495
6,"test.sc_dark.Darkbad","goodright",1,601
6,"test.sc_dark.Darkbad","darkleft",1,511
6,"test.sc_dark.Darkbad","badleft",1,644
6,"test.sc_dark.Darkbad","darkleft",1,554
6,"test.sc_dark.Darkbad","goodright",1,593
6,"test.sc_dark.Darkbad","darkleft",1,640
6,"test.sc_dark.Darkbad","darkleft",1,527
6,"test.sc_dark.Darkbad","goodright",0,510
6,"test.sc_dark.Darkbad","darkleft",1,530
6,"test.sc_dark.Darkbad","goodright",1,596
6,"test.sc_dark.Darkbad","goodright",1,1179
6,"test.sc_dark.Darkbad","darkleft",1,550
6,"test.sc_dark.Darkbad","goodright",1,666
6,"test.sc_dark.Darkbad","badleft",1,662
6,"test.sc_dark.Darkbad","darkleft",1,647
6,"test.sc_dark.Darkbad","darkleft",1,425
6,"test.sc_dark.Darkbad","badleft",1,741
6,"test.sc_dark.Darkbad","darkleft",1,409
6,"test.sc_dark.Darkbad","darkleft",1,419
6,"test.sc_dark.Darkbad","darkleft",1,495
6,"test.sc_dark.Darkbad","badleft",1,737
6,"test.sc_dark.Darkbad","goodright",1,467
6,"test.sc_dark.Darkbad","goodright",1,463
6,"test.sc_dark.Darkbad","badleft",1,611
6,"test.sc_dark.Darkbad","badleft",1,573
6,"test.sc_dark.Darkbad","goodright",1,598
6,"test.sc_dark.Darkbad","badleft",1,621
6,"test.sc_dark.Darkbad","darkleft",1,593
6,"test.sc_dark.Darkbad","darkleft",1,456
6,"test.sc_dark.Darkbad","badleft",1,610
6,"test.sc_dark.Darkbad","badleft",1,547
6,"test.sc_dark.Darkbad","goodright",1,432
6,"test.sc_dark.Darkbad","darkleft",1,527
6,"test.sc_dark.Darkbad","goodright",1,582
6,"test.sc_dark.Darkbad","goodright",1,535
6,"test.sc_dark.Darkbad","goodright",1,481
6,"test.sc_dark.Darkbad","goodright",1,576
6,"test.sc_dark.Darkbad","darkleft",1,505
6,"test.sc_dark.Darkbad","darkleft",1,438
6,"test.sc_dark.Darkbad","badleft",1,597
6,"test.sc_dark.Darkbad","badleft",1,692
6,"test.sc_dark.Darkbad","badleft",1,605
6,"test.sc_dark.Darkbad","badleft",1,524
6,"test.sc_dark.Darkbad","goodright",1,803
6,"test.sc_dark.Darkbad","goodright",1,641
6,"test.sc_dark.Darkbad","goodright",1,624
6,"test.sc_dark.Darkbad","darkleft",1,524
6,"test.sc_dark.Darkbad","goodright",1,795
6,"test.sc_dark.Darkbad","goodright",1,599
6,"test.sc_dark.Darkbad","badleft",1,830
6,"test.sc_dark.Darkbad","darkleft",1,562
6,"test.sc_dark.Darkbad","badleft",1,761
6,"test.sc_dark.Darkbad","badleft",1,599
6,"test.sc_dark.Darkgood","darkright",1,620
6,"test.sc_dark.Darkgood","goodright",1,773
6,"test.sc_dark.Darkgood","goodright",1,515
6,"test.sc_dark.Darkgood","goodright",1,391
6,"test.sc_dark.Darkgood","badleft",1,628
6,"test.sc_dark.Darkgood","goodright",1,520
6,"test.sc_dark.Darkgood","darkright",0,439
6,"test.sc_dark.Darkgood","goodright",1,1782
6,"test.sc_dark.Darkgood","darkright",0,561
6,"test.sc_dark.Darkgood","goodright",1,1512
6,"test.sc_dark.Darkgood","badleft",1,674
6,"test.sc_dark.Darkgood","badleft",1,582
6,"test.sc_dark.Darkgood","darkright",1,674
6,"test.sc_dark.Darkgood","badleft",1,767
6,"test.sc_dark.Darkgood","badleft",1,597
6,"test.sc_dark.Darkgood","goodright",1,583
6,"test.sc_dark.Darkgood","goodright",1,459
6,"test.sc_dark.Darkgood","darkright",1,447
6,"test.sc_dark.Darkgood","goodright",1,427
6,"test.sc_dark.Darkgood","goodright",1,624
6,"test.sc_dark.Darkgood","badleft",1,460
6,"test.sc_dark.Darkgood","badleft",1,542
6,"test.sc_dark.Darkgood","badleft",1,519
6,"test.sc_dark.Darkgood","darkright",1,566
6,"test.sc_dark.Darkgood","darkright",1,856
6,"test.sc_dark.Darkgood","darkright",1,393
6,"test.sc_dark.Darkgood","badleft",1,2165
6,"test.sc_dark.Darkgood","darkright",1,546
6,"test.sc_dark.Darkgood","badleft",1,574
6,"test.sc_dark.Darkgood","badleft",1,504
6,"test.sc_dark.Darkgood","darkright",1,452
6,"test.sc_dark.Darkgood","badleft",1,1182
6,"test.sc_dark.Darkgood","badleft",1,614
6,"test.sc_dark.Darkgood","darkright",1,392
6,"test.sc_dark.Darkgood","darkright",1,407
6,"test.sc_dark.Darkgood","goodright",1,670
6,"test.sc_dark.Darkgood","badleft",1,690
6,"test.sc_dark.Darkgood","darkright",1,619
6,"test.sc_dark.Darkgood","goodright",1,557
6,"test.sc_dark.Darkgood","badleft",1,980
6,"test.sc_dark.Darkgood","goodright",1,661
6,"test.sc_dark.Darkgood","badleft",1,590
6,"test.sc_dark.Darkgood","badleft",1,514
6,"test.sc_dark.Darkgood","badleft",1,591
6,"test.sc_dark.Darkgood","badleft",1,507
6,"test.sc_dark.Darkgood","badleft",1,482
6,"test.sc_dark.Darkgood","goodright",1,473
6,"test.sc_dark.Darkgood","goodright",1,485
6,"test.sc_dark.Darkgood","badleft",1,508
6,"test.sc_dark.Darkgood","goodright",1,792
6,"test.sc_dark.Darkgood","badleft",1,564
6,"test.sc_dark.Darkgood","badleft",1,963
6,"test.sc_dark.Darkgood","darkright",1,689
6,"test.sc_dark.Darkgood","badleft",1,659
6,"test.sc_dark.Darkgood","darkright",1,567
6,"test.sc_dark.Darkgood","darkright",1,398
6,"test.sc_dark.Darkgood","badleft",1,533
6,"test.sc_dark.Darkgood","badleft",0,615
6,"test.sc_dark.Darkgood","darkright",1,488
6,"test.sc_dark.Darkgood","darkright",1,1490
6,"test.sc_dark.Darkgood","badleft",1,1503
6,"test.sc_dark.Darkgood","goodright",1,991
6,"test.sc_dark.Darkgood","badleft",1,563
6,"test.sc_dark.Darkgood","badleft",1,457
6,"test.sc_dark.Darkgood","darkright",0,598
6,"test.sc_dark.Darkgood","darkright",1,557
6,"test.sc_dark.Darkgood","goodright",1,556
6,"test.sc_dark.Darkgood","goodright",1,447
6,"test.sc_dark.Darkgood","badleft",1,575
6,"test.sc_dark.Darkgood","goodright",1,1072
6,"test.sc_dark.Darkgood","darkright",1,671
6,"test.sc_dark.Darkgood","goodright",1,595
244,"test.sc_dark.Darkbad","darkleft",1,461
244,"test.sc_dark.Darkbad","badleft",1,1495
244,"test.sc_dark.Darkbad","darkleft",1,639
244,"test.sc_dark.Darkbad","badleft",1,573
244,"test.sc_dark.Darkbad","goodright",1,671
244,"test.sc_dark.Darkbad","badleft",1,643
244,"test.sc_dark.Darkbad","darkleft",1,714
244,"test.sc_dark.Darkbad","goodright",1,1190
244,"test.sc_dark.Darkbad","darkleft",1,625
244,"test.sc_dark.Darkbad","darkleft",1,517
244,"test.sc_dark.Darkbad","goodright",1,700
244,"test.sc_dark.Darkbad","goodright",1,950
244,"test.sc_dark.Darkbad","badleft",1,617
244,"test.sc_dark.Darkbad","darkleft",0,834
244,"test.sc_dark.Darkbad","darkleft",1,737
244,"test.sc_dark.Darkbad","darkleft",1,474
244,"test.sc_dark.Darkbad","goodright",1,727
244,"test.sc_dark.Darkbad","badleft",1,853
244,"test.sc_dark.Darkbad","badleft",1,991
244,"test.sc_dark.Darkbad","badleft",1,674
244,"test.sc_dark.Darkbad","goodright",1,678
244,"test.sc_dark.Darkbad","badleft",1,717
244,"test.sc_dark.Darkbad","darkleft",1,692
244,"test.sc_dark.Darkbad","goodright",1,645
244,"test.sc_dark.Darkbad","goodright",1,1508
244,"test.sc_dark.Darkbad","badleft",1,615
244,"test.sc_dark.Darkbad","darkleft",0,1056
244,"test.sc_dark.Darkbad","badleft",1,1305
244,"test.sc_dark.Darkbad","goodright",1,852
244,"test.sc_dark.Darkbad","goodright",1,1509
244,"test.sc_dark.Darkbad","goodright",1,2824
244,"test.sc_dark.Darkbad","darkleft",1,688
244,"test.sc_dark.Darkbad","badleft",1,615
244,"test.sc_dark.Darkbad","badleft",1,625
244,"test.sc_dark.Darkbad","goodright",1,813
244,"test.sc_dark.Darkbad","goodright",1,862
244,"test.sc_dark.Darkbad","goodright",1,631
244,"test.sc_dark.Darkbad","goodright",1,691
244,"test.sc_dark.Darkbad","goodright",1,861
244,"test.sc_dark.Darkbad","badleft",1,606
244,"test.sc_dark.Darkbad","goodright",1,629
244,"test.sc_dark.Darkbad","goodright",1,665
244,"test.sc_dark.Darkbad","goodright",1,565
244,"test.sc_dark.Darkbad","darkleft",1,694
244,"test.sc_dark.Darkbad","badleft",1,1224
244,"test.sc_dark.Darkbad","alert",1,571
244,"test.sc_dark.Darkbad","darkleft",1,469
244,"test.sc_dark.Darkbad","goodright",1,609
244,"test.sc_dark.Darkbad","goodright",1,554
244,"test.sc_dark.Darkbad","goodright",1,623
244,"test.sc_dark.Darkbad","badleft",0,491
244,"test.sc_dark.Darkbad","badleft",0,717
244,"test.sc_dark.Darkbad","goodright",1,2075
244,"test.sc_dark.Darkbad","darkleft",1,592
244,"test.sc_dark.Darkbad","goodright",1,732
244,"test.sc_dark.Darkbad","badleft",1,589
244,"test.sc_dark.Darkbad","goodright",1,689
244,"test.sc_dark.Darkbad","goodright",1,947
244,"test.sc_dark.Darkbad","darkleft",1,2574
244,"test.sc_dark.Darkbad","goodright",1,973
244,"test.sc_dark.Darkbad","darkleft",1,534
244,"test.sc_dark.Darkbad","goodright",1,568
244,"test.sc_dark.Darkbad","badleft",1,598
244,"test.sc_dark.Darkbad","darkleft",1,757
244,"test.sc_dark.Darkbad","goodright",1,588
244,"test.sc_dark.Darkbad","darkleft",1,824
244,"test.sc_dark.Darkbad","darkleft",1,468
244,"test.sc_dark.Darkbad","badleft",1,704
244,"test.sc_dark.Darkbad","darkleft",1,780
244,"test.sc_dark.Darkbad","goodright",1,549
244,"test.sc_dark.Darkbad","darkleft",1,562
244,"test.sc_dark.Darkbad","badleft",1,665
244,"test.sc_dark.Darkgood","darkright",1,624
244,"test.sc_dark.Darkgood","badleft",1,588
244,"test.sc_dark.Darkgood","darkright",1,672
244,"test.sc_dark.Darkgood","badleft",1,693
244,"test.sc_dark.Darkgood","goodright",1,566
244,"test.sc_dark.Darkgood","goodright",1,541
244,"test.sc_dark.Darkgood","badleft",1,630
244,"test.sc_dark.Darkgood","goodright",1,707
244,"test.sc_dark.Darkgood","goodright",1,654
244,"test.sc_dark.Darkgood","darkright",1,680
244,"test.sc_dark.Darkgood","badleft",1,631
244,"test.sc_dark.Darkgood","badleft",1,651
244,"test.sc_dark.Darkgood","badleft",1,540
244,"test.sc_dark.Darkgood","alert",1,854
244,"test.sc_dark.Darkgood","goodright",1,1063
244,"test.sc_dark.Darkgood","badleft",1,594
244,"test.sc_dark.Darkgood","darkright",1,793
244,"test.sc_dark.Darkgood","goodright",1,589
244,"test.sc_dark.Darkgood","badleft",1,561
244,"test.sc_dark.Darkgood","goodright",1,824
244,"test.sc_dark.Darkgood","badleft",1,836
244,"test.sc_dark.Darkgood","darkright",1,610
244,"test.sc_dark.Darkgood","goodright",1,812
244,"test.sc_dark.Darkgood","badleft",1,549
244,"test.sc_dark.Darkgood","darkright",1,433
244,"test.sc_dark.Darkgood","darkright",1,584
244,"test.sc_dark.Darkgood","goodright",1,813
244,"test.sc_dark.Darkgood","badleft",1,574
244,"test.sc_dark.Darkgood","badleft",1,663
244,"test.sc_dark.Darkgood","badleft",1,732
244,"test.sc_dark.Darkgood","darkright",1,685
244,"test.sc_dark.Darkgood","badleft",1,572
244,"test.sc_dark.Darkgood","badleft",1,637
244,"test.sc_dark.Darkgood","badleft",1,596
244,"test.sc_dark.Darkgood","badleft",1,651
244,"test.sc_dark.Darkgood","darkright",1,644
244,"test.sc_dark.Darkgood","badleft",1,667
244,"test.sc_dark.Darkgood","goodright",1,815
244,"test.sc_dark.Darkgood","goodright",1,744
244,"test.sc_dark.Darkgood","darkright",1,620
244,"test.sc_dark.Darkgood","darkright",1,496
244,"test.sc_dark.Darkgood","badleft",1,642
244,"test.sc_dark.Darkgood","badleft",1,609
244,"test.sc_dark.Darkgood","badleft",1,527
244,"test.sc_dark.Darkgood","goodright",1,678
244,"test.sc_dark.Darkgood","darkright",1,589
244,"test.sc_dark.Darkgood","darkright",1,593
244,"test.sc_dark.Darkgood","goodright",1,822
244,"test.sc_dark.Darkgood","goodright",1,575
244,"test.sc_dark.Darkgood","badleft",1,760
244,"test.sc_dark.Darkgood","goodright",1,695
244,"test.sc_dark.Darkgood","badleft",1,576
244,"test.sc_dark.Darkgood","goodright",1,570
244,"test.sc_dark.Darkgood","darkright",1,603
244,"test.sc_dark.Darkgood","darkright",1,490
244,"test.sc_dark.Darkgood","goodright",1,620
244,"test.sc_dark.Darkgood","darkright",1,496
244,"test.sc_dark.Darkgood","darkright",1,458
244,"test.sc_dark.Darkgood","goodright",1,675
244,"test.sc_dark.Darkgood","alert",1,703
244,"test.sc_dark.Darkgood","goodright",1,947
244,"test.sc_dark.Darkgood","badleft",1,703
244,"test.sc_dark.Darkgood","darkright",1,499
244,"test.sc_dark.Darkgood","darkright",1,495
244,"test.sc_dark.Darkgood","badleft",1,785
244,"test.sc_dark.Darkgood","badleft",1,1421
244,"test.sc_dark.Darkgood","badleft",1,829
244,"test.sc_dark.Darkgood","goodright",1,505
244,"test.sc_dark.Darkgood","badleft",1,549
244,"test.sc_dark.Darkgood","darkright",1,458
244,"test.sc_dark.Darkgood","alert",1,579
244,"test.sc_dark.Darkgood","darkright",1,488
8,"test.sc_dark.Darkgood","darkright",1,837
8,"test.sc_dark.Darkgood","badleft",1,635
8,"test.sc_dark.Darkgood","darkright",1,498
8,"test.sc_dark.Darkgood","goodright",1,1172
8,"test.sc_dark.Darkgood","badleft",1,636
8,"test.sc_dark.Darkgood","goodright",1,675
8,"test.sc_dark.Darkgood","darkright",1,466
8,"test.sc_dark.Darkgood","darkright",1,390
8,"test.sc_dark.Darkgood","goodright",1,555
8,"test.sc_dark.Darkgood","badleft",1,631
8,"test.sc_dark.Darkgood","goodright",1,563
8,"test.sc_dark.Darkgood","badleft",1,778
8,"test.sc_dark.Darkgood","goodright",1,643
8,"test.sc_dark.Darkgood","badleft",1,1042
8,"test.sc_dark.Darkgood","darkright",1,480
8,"test.sc_dark.Darkgood","goodright",1,767
8,"test.sc_dark.Darkgood","badleft",1,918
8,"test.sc_dark.Darkgood","badleft",1,604
8,"test.sc_dark.Darkgood","badleft",1,619
8,"test.sc_dark.Darkgood","goodright",1,669
8,"test.sc_dark.Darkgood","badleft",1,641
8,"test.sc_dark.Darkgood","goodright",1,823
8,"test.sc_dark.Darkgood","darkright",1,555
8,"test.sc_dark.Darkgood","badleft",1,1191
8,"test.sc_dark.Darkgood","darkright",1,434
8,"test.sc_dark.Darkgood","badleft",1,671
8,"test.sc_dark.Darkgood","goodright",1,563
8,"test.sc_dark.Darkgood","badleft",1,594
8,"test.sc_dark.Darkgood","darkright",1,945
8,"test.sc_dark.Darkgood","goodright",1,717
8,"test.sc_dark.Darkgood","darkright",1,451
8,"test.sc_dark.Darkgood","darkright",1,533
8,"test.sc_dark.Darkgood","goodright",1,606
8,"test.sc_dark.Darkgood","goodright",1,470
8,"test.sc_dark.Darkgood","darkright",1,474
8,"test.sc_dark.Darkgood","goodright",1,638
8,"test.sc_dark.Darkgood","goodright",1,629
8,"test.sc_dark.Darkgood","badleft",1,649
8,"test.sc_dark.Darkgood","badleft",1,1059
8,"test.sc_dark.Darkgood","darkright",1,406
8,"test.sc_dark.Darkgood","darkright",1,552
8,"test.sc_dark.Darkgood","goodright",1,1020
8,"test.sc_dark.Darkgood","badleft",0,853
8,"test.sc_dark.Darkgood","badleft",0,694
8,"test.sc_dark.Darkgood","goodright",1,1104
8,"test.sc_dark.Darkgood","badleft",1,507
8,"test.sc_dark.Darkgood","badleft",0,503
8,"test.sc_dark.Darkgood","goodright",1,892
8,"test.sc_dark.Darkgood","badleft",1,509
8,"test.sc_dark.Darkgood","badleft",1,769
8,"test.sc_dark.Darkgood","badleft",1,463
8,"test.sc_dark.Darkgood","badleft",1,900
8,"test.sc_dark.Darkgood","goodright",1,509
8,"test.sc_dark.Darkgood","darkright",1,529
8,"test.sc_dark.Darkgood","badleft",1,1027
8,"test.sc_dark.Darkgood","darkright",1,510
8,"test.sc_dark.Darkgood","goodright",1,795
8,"test.sc_dark.Darkgood","badleft",1,639
8,"test.sc_dark.Darkgood","darkright",1,517
8,"test.sc_dark.Darkgood","badleft",1,700
8,"test.sc_dark.Darkgood","darkright",1,448
8,"test.sc_dark.Darkgood","goodright",1,695
8,"test.sc_dark.Darkgood","badleft",1,521
8,"test.sc_dark.Darkgood","badleft",0,584
8,"test.sc_dark.Darkgood","badleft",1,1148
8,"test.sc_dark.Darkgood","goodright",1,663
8,"test.sc_dark.Darkgood","badleft",1,547
8,"test.sc_dark.Darkgood","darkright",1,424
8,"test.sc_dark.Darkgood","badleft",1,820
8,"test.sc_dark.Darkgood","darkright",1,400
8,"test.sc_dark.Darkgood","darkright",1,575
8,"test.sc_dark.Darkgood","darkright",1,416
8,"test.sc_dark.Darkbad","goodright",1,915
8,"test.sc_dark.Darkbad","darkleft",1,625
8,"test.sc_dark.Darkbad","darkleft",1,653
8,"test.sc_dark.Darkbad","goodright",1,783
8,"test.sc_dark.Darkbad","badleft",1,515
8,"test.sc_dark.Darkbad","badleft",1,663
8,"test.sc_dark.Darkbad","darkleft",1,531
8,"test.sc_dark.Darkbad","darkleft",1,428
8,"test.sc_dark.Darkbad","badleft",0,1561
8,"test.sc_dark.Darkbad","goodright",1,1646
8,"test.sc_dark.Darkbad","badleft",1,900
8,"test.sc_dark.Darkbad","badleft",1,477
8,"test.sc_dark.Darkbad","goodright",1,532
8,"test.sc_dark.Darkbad","goodright",1,470
8,"test.sc_dark.Darkbad","badleft",1,722
8,"test.sc_dark.Darkbad","darkleft",1,656
8,"test.sc_dark.Darkbad","goodright",1,690
8,"test.sc_dark.Darkbad","goodright",1,547
8,"test.sc_dark.Darkbad","goodright",1,560
8,"test.sc_dark.Darkbad","goodright",1,687
8,"test.sc_dark.Darkbad","badleft",1,557
8,"test.sc_dark.Darkbad","darkleft",1,764
8,"test.sc_dark.Darkbad","badleft",1,626
8,"test.sc_dark.Darkbad","goodright",1,703
8,"test.sc_dark.Darkbad","goodright",0,699
8,"test.sc_dark.Darkbad","goodright",1,1372
8,"test.sc_dark.Darkbad","darkleft",1,700
8,"test.sc_dark.Darkbad","goodright",1,838
8,"test.sc_dark.Darkbad","darkleft",1,580
8,"test.sc_dark.Darkbad","goodright",1,1422
8,"test.sc_dark.Darkbad","goodright",1,718
8,"test.sc_dark.Darkbad","goodright",1,509
8,"test.sc_dark.Darkbad","badleft",1,729
8,"test.sc_dark.Darkbad","goodright",1,1327
8,"test.sc_dark.Darkbad","badleft",1,566
8,"test.sc_dark.Darkbad","darkleft",0,1207
8,"test.sc_dark.Darkbad","goodright",0,1285
8,"test.sc_dark.Darkbad","badleft",1,1723
8,"test.sc_dark.Darkbad","badleft",1,720
8,"test.sc_dark.Darkbad","goodright",1,511
8,"test.sc_dark.Darkbad","goodright",1,579
8,"test.sc_dark.Darkbad","goodright",1,644
8,"test.sc_dark.Darkbad","darkleft",1,502
8,"test.sc_dark.Darkbad","darkleft",1,474
8,"test.sc_dark.Darkbad","badleft",1,638
8,"test.sc_dark.Darkbad","badleft",1,565
8,"test.sc_dark.Darkbad","darkleft",1,503
8,"test.sc_dark.Darkbad","darkleft",1,475
8,"test.sc_dark.Darkbad","badleft",1,695
8,"test.sc_dark.Darkbad","darkleft",1,665
8,"test.sc_dark.Darkbad","darkleft",1,469
8,"test.sc_dark.Darkbad","goodright",1,505
8,"test.sc_dark.Darkbad","darkleft",1,542
8,"test.sc_dark.Darkbad","badleft",1,743
8,"test.sc_dark.Darkbad","goodright",1,579
8,"test.sc_dark.Darkbad","goodright",1,701
8,"test.sc_dark.Darkbad","badleft",1,526
8,"test.sc_dark.Darkbad","darkleft",1,512
8,"test.sc_dark.Darkbad","goodright",1,692
8,"test.sc_dark.Darkbad","darkleft",1,621
8,"test.sc_dark.Darkbad","badleft",1,695
8,"test.sc_dark.Darkbad","badleft",1,1504
8,"test.sc_dark.Darkbad","darkleft",1,579
8,"test.sc_dark.Darkbad","darkleft",1,455
8,"test.sc_dark.Darkbad","goodright",1,649
8,"test.sc_dark.Darkbad","goodright",1,591
8,"test.sc_dark.Darkbad","badleft",1,612
8,"test.sc_dark.Darkbad","goodright",1,710
8,"test.sc_dark.Darkbad","goodright",1,730
8,"test.sc_dark.Darkbad","badleft",1,547
8,"test.sc_dark.Darkbad","darkleft",1,607
8,"test.sc_dark.Darkbad","goodright",1,766
11,"test.sc_dark.Darkbad","goodright",1,871
11,"test.sc_dark.Darkbad","goodright",1,603
11,"test.sc_dark.Darkbad","badleft",1,586
11,"test.sc_dark.Darkbad","darkleft",1,750
11,"test.sc_dark.Darkbad","darkleft",1,562
11,"test.sc_dark.Darkbad","badleft",1,625
11,"test.sc_dark.Darkbad","darkleft",1,637
11,"test.sc_dark.Darkbad","badleft",1,732
11,"test.sc_dark.Darkbad","badleft",1,453
11,"test.sc_dark.Darkbad","darkleft",1,423
11,"test.sc_dark.Darkbad","goodright",1,763
11,"test.sc_dark.Darkbad","badleft",1,634
11,"test.sc_dark.Darkbad","goodright",1,542
11,"test.sc_dark.Darkbad","badleft",1,495
11,"test.sc_dark.Darkbad","goodright",1,537
11,"test.sc_dark.Darkbad","goodright",1,547
11,"test.sc_dark.Darkbad","goodright",1,559
11,"test.sc_dark.Darkbad","goodright",1,646
11,"test.sc_dark.Darkbad","goodright",1,421
11,"test.sc_dark.Darkbad","badleft",1,551
11,"test.sc_dark.Darkbad","darkleft",1,533
11,"test.sc_dark.Darkbad","goodright",1,583
11,"test.sc_dark.Darkbad","goodright",1,675
11,"test.sc_dark.Darkbad","darkleft",1,634
11,"test.sc_dark.Darkbad","badleft",1,806
11,"test.sc_dark.Darkbad","darkleft",1,503
11,"test.sc_dark.Darkbad","goodright",1,859
11,"test.sc_dark.Darkbad","goodright",1,557
11,"test.sc_dark.Darkbad","goodright",1,644
11,"test.sc_dark.Darkbad","darkleft",1,674
11,"test.sc_dark.Darkbad","badleft",1,535
11,"test.sc_dark.Darkbad","darkleft",1,584
11,"test.sc_dark.Darkbad","badleft",1,628
11,"test.sc_dark.Darkbad","darkleft",1,584
11,"test.sc_dark.Darkbad","darkleft",1,493
11,"test.sc_dark.Darkbad","darkleft",1,486
11,"test.sc_dark.Darkbad","goodright",1,669
11,"test.sc_dark.Darkbad","darkleft",1,473
11,"test.sc_dark.Darkbad","goodright",1,614
11,"test.sc_dark.Darkbad","goodright",1,719
11,"test.sc_dark.Darkbad","goodright",1,502
11,"test.sc_dark.Darkbad","badleft",1,607
11,"test.sc_dark.Darkbad","darkleft",1,569
11,"test.sc_dark.Darkbad","darkleft",1,483
11,"test.sc_dark.Darkbad","darkleft",1,538
11,"test.sc_dark.Darkbad","goodright",1,747
11,"test.sc_dark.Darkbad","badleft",0,503
11,"test.sc_dark.Darkbad","goodright",1,868
11,"test.sc_dark.Darkbad","darkleft",1,831
11,"test.sc_dark.Darkbad","goodright",1,923
11,"test.sc_dark.Darkbad","goodright",1,529
11,"test.sc_dark.Darkbad","goodright",1,563
11,"test.sc_dark.Darkbad","badleft",1,522
11,"test.sc_dark.Darkbad","goodright",1,617
11,"test.sc_dark.Darkbad","goodright",1,906
11,"test.sc_dark.Darkbad","goodright",1,550
11,"test.sc_dark.Darkbad","badleft",1,618
11,"test.sc_dark.Darkbad","goodright",1,660
11,"test.sc_dark.Darkbad","badleft",1,589
11,"test.sc_dark.Darkbad","badleft",1,601
11,"test.sc_dark.Darkbad","badleft",1,520
11,"test.sc_dark.Darkbad","goodright",1,535
11,"test.sc_dark.Darkbad","badleft",1,585
11,"test.sc_dark.Darkbad","badleft",1,1173
11,"test.sc_dark.Darkbad","darkleft",1,574
11,"test.sc_dark.Darkbad","darkleft",1,559
11,"test.sc_dark.Darkbad","badleft",1,606
11,"test.sc_dark.Darkbad","badleft",1,453
11,"test.sc_dark.Darkbad","darkleft",1,503
11,"test.sc_dark.Darkbad","darkleft",1,507
11,"test.sc_dark.Darkbad","goodright",1,535
11,"test.sc_dark.Darkbad","goodright",0,561
11,"test.sc_dark.Darkgood","badleft",1,742
11,"test.sc_dark.Darkgood","badleft",1,487
11,"test.sc_dark.Darkgood","goodright",1,518
11,"test.sc_dark.Darkgood","badleft",1,597
11,"test.sc_dark.Darkgood","darkright",1,596
11,"test.sc_dark.Darkgood","goodright",1,699
11,"test.sc_dark.Darkgood","badleft",1,580
11,"test.sc_dark.Darkgood","badleft",1,574
11,"test.sc_dark.Darkgood","darkright",1,631
11,"test.sc_dark.Darkgood","goodright",1,612
11,"test.sc_dark.Darkgood","badleft",1,917
11,"test.sc_dark.Darkgood","darkright",1,643
11,"test.sc_dark.Darkgood","goodright",1,2802
11,"test.sc_dark.Darkgood","badleft",1,726
11,"test.sc_dark.Darkgood","badleft",1,524
11,"test.sc_dark.Darkgood","darkright",1,622
11,"test.sc_dark.Darkgood","badleft",1,639
11,"test.sc_dark.Darkgood","darkright",1,590
11,"test.sc_dark.Darkgood","goodright",1,1051
11,"test.sc_dark.Darkgood","badleft",1,539
11,"test.sc_dark.Darkgood","badleft",1,597
11,"test.sc_dark.Darkgood","darkright",1,579
11,"test.sc_dark.Darkgood","badleft",1,621
11,"test.sc_dark.Darkgood","darkright",1,753
11,"test.sc_dark.Darkgood","darkright",1,496
11,"test.sc_dark.Darkgood","badleft",1,610
11,"test.sc_dark.Darkgood","goodright",1,587
11,"test.sc_dark.Darkgood","goodright",1,575
11,"test.sc_dark.Darkgood","darkright",0,617
11,"test.sc_dark.Darkgood","badleft",1,1466
11,"test.sc_dark.Darkgood","goodright",1,685
11,"test.sc_dark.Darkgood","badleft",1,660
11,"test.sc_dark.Darkgood","goodright",1,717
11,"test.sc_dark.Darkgood","darkright",1,628
11,"test.sc_dark.Darkgood","badleft",1,944
11,"test.sc_dark.Darkgood","darkright",1,1236
11,"test.sc_dark.Darkgood","badleft",1,695
11,"test.sc_dark.Darkgood","goodright",1,592
11,"test.sc_dark.Darkgood","darkright",1,455
11,"test.sc_dark.Darkgood","goodright",1,665
11,"test.sc_dark.Darkgood","goodright",1,573
11,"test.sc_dark.Darkgood","goodright",0,879
11,"test.sc_dark.Darkgood","badleft",1,2309
11,"test.sc_dark.Darkgood","badleft",1,670
11,"test.sc_dark.Darkgood","goodright",1,787
11,"test.sc_dark.Darkgood","darkright",1,1361
11,"test.sc_dark.Darkgood","darkright",1,391
11,"test.sc_dark.Darkgood","darkright",1,438
11,"test.sc_dark.Darkgood","darkright",1,453
11,"test.sc_dark.Darkgood","goodright",1,791
11,"test.sc_dark.Darkgood","darkright",1,434
11,"test.sc_dark.Darkgood","badleft",1,935
11,"test.sc_dark.Darkgood","badleft",1,440
11,"test.sc_dark.Darkgood","badleft",1,447
11,"test.sc_dark.Darkgood","goodright",1,550
11,"test.sc_dark.Darkgood","badleft",1,891
11,"test.sc_dark.Darkgood","goodright",1,876
11,"test.sc_dark.Darkgood","badleft",1,567
11,"test.sc_dark.Darkgood","badleft",1,598
11,"test.sc_dark.Darkgood","badleft",1,477
11,"test.sc_dark.Darkgood","goodright",1,580
11,"test.sc_dark.Darkgood","badleft",1,566
11,"test.sc_dark.Darkgood","badleft",1,621
11,"test.sc_dark.Darkgood","badleft",1,862
11,"test.sc_dark.Darkgood","goodright",1,559
11,"test.sc_dark.Darkgood","darkright",1,774
11,"test.sc_dark.Darkgood","badleft",1,807
11,"test.sc_dark.Darkgood","goodright",1,622
11,"test.sc_dark.Darkgood","goodright",1,655
11,"test.sc_dark.Darkgood","darkright",1,865
11,"test.sc_dark.Darkgood","darkright",1,389
11,"test.sc_dark.Darkgood","darkright",1,321
14,"test.sc_dark.Darkgood","badleft",1,885
14,"test.sc_dark.Darkgood","goodright",1,628
14,"test.sc_dark.Darkgood","darkright",1,512
14,"test.sc_dark.Darkgood","badleft",1,732
14,"test.sc_dark.Darkgood","badleft",1,1749
14,"test.sc_dark.Darkgood","darkright",1,432
14,"test.sc_dark.Darkgood","badleft",1,828
14,"test.sc_dark.Darkgood","goodright",1,1024
14,"test.sc_dark.Darkgood","goodright",1,516
14,"test.sc_dark.Darkgood","badleft",1,595
14,"test.sc_dark.Darkgood","badleft",1,535
14,"test.sc_dark.Darkgood","darkright",1,416
14,"test.sc_dark.Darkgood","goodright",1,1074
14,"test.sc_dark.Darkgood","goodright",1,518
14,"test.sc_dark.Darkgood","darkright",1,469
14,"test.sc_dark.Darkgood","darkright",1,609
14,"test.sc_dark.Darkgood","goodright",1,851
14,"test.sc_dark.Darkgood","badleft",0,692
14,"test.sc_dark.Darkgood","darkright",1,869
14,"test.sc_dark.Darkgood","darkright",1,545
14,"test.sc_dark.Darkgood","goodright",1,869
14,"test.sc_dark.Darkgood","goodright",1,601
14,"test.sc_dark.Darkgood","darkright",1,728
14,"test.sc_dark.Darkgood","badleft",1,574
14,"test.sc_dark.Darkgood","badleft",1,728
14,"test.sc_dark.Darkgood","goodright",1,750
14,"test.sc_dark.Darkgood","badleft",1,738
14,"test.sc_dark.Darkgood","goodright",1,540
14,"test.sc_dark.Darkgood","badleft",1,757
14,"test.sc_dark.Darkgood","darkright",1,564
14,"test.sc_dark.Darkgood","badleft",1,1099
14,"test.sc_dark.Darkgood","goodright",1,532
14,"test.sc_dark.Darkgood","goodright",1,677
14,"test.sc_dark.Darkgood","badleft",1,756
14,"test.sc_dark.Darkgood","goodright",1,1322
14,"test.sc_dark.Darkgood","goodright",1,696
14,"test.sc_dark.Darkgood","badleft",1,874
14,"test.sc_dark.Darkgood","darkright",1,816
14,"test.sc_dark.Darkgood","badleft",1,745
14,"test.sc_dark.Darkgood","darkright",1,605
14,"test.sc_dark.Darkgood","badleft",1,580
14,"test.sc_dark.Darkgood","darkright",1,520
14,"test.sc_dark.Darkgood","badleft",1,655
14,"test.sc_dark.Darkgood","goodright",1,601
14,"test.sc_dark.Darkgood","darkright",1,431
14,"test.sc_dark.Darkgood","darkright",1,502
14,"test.sc_dark.Darkgood","badleft",1,907
14,"test.sc_dark.Darkgood","goodright",1,487
14,"test.sc_dark.Darkgood","goodright",1,542
14,"test.sc_dark.Darkgood","badleft",1,495
14,"test.sc_dark.Darkgood","darkright",1,561
14,"test.sc_dark.Darkgood","darkright",1,600
14,"test.sc_dark.Darkgood","badleft",1,551
14,"test.sc_dark.Darkgood","badleft",1,523
14,"test.sc_dark.Darkgood","badleft",1,490
14,"test.sc_dark.Darkgood","badleft",1,468
14,"test.sc_dark.Darkgood","badleft",1,472
14,"test.sc_dark.Darkgood","badleft",1,476
14,"test.sc_dark.Darkgood","goodright",0,539
14,"test.sc_dark.Darkgood","badleft",1,1445
14,"test.sc_dark.Darkgood","goodright",1,586
14,"test.sc_dark.Darkgood","darkright",1,535
14,"test.sc_dark.Darkgood","goodright",1,552
14,"test.sc_dark.Darkgood","badleft",1,1116
14,"test.sc_dark.Darkgood","badleft",1,650
14,"test.sc_dark.Darkgood","darkright",1,508
14,"test.sc_dark.Darkgood","darkright",1,576
14,"test.sc_dark.Darkgood","goodright",1,610
14,"test.sc_dark.Darkgood","badleft",1,531
14,"test.sc_dark.Darkgood","darkright",1,557
14,"test.sc_dark.Darkgood","darkright",1,540
14,"test.sc_dark.Darkgood","badleft",1,605
14,"test.sc_dark.Darkbad","badleft",1,643
14,"test.sc_dark.Darkbad","goodright",1,625
14,"test.sc_dark.Darkbad","goodright",1,702
14,"test.sc_dark.Darkbad","darkleft",1,473
14,"test.sc_dark.Darkbad","badleft",1,582
14,"test.sc_dark.Darkbad","darkleft",1,530
14,"test.sc_dark.Darkbad","darkleft",1,444
14,"test.sc_dark.Darkbad","badleft",1,523
14,"test.sc_dark.Darkbad","badleft",1,538
14,"test.sc_dark.Darkbad","goodright",1,667
14,"test.sc_dark.Darkbad","goodright",1,463
14,"test.sc_dark.Darkbad","goodright",1,636
14,"test.sc_dark.Darkbad","darkleft",1,418
14,"test.sc_dark.Darkbad","badleft",1,580
14,"test.sc_dark.Darkbad","badleft",1,854
14,"test.sc_dark.Darkbad","goodright",1,503
14,"test.sc_dark.Darkbad","badleft",1,515
14,"test.sc_dark.Darkbad","darkleft",1,498
14,"test.sc_dark.Darkbad","darkleft",1,399
14,"test.sc_dark.Darkbad","goodright",1,542
14,"test.sc_dark.Darkbad","goodright",1,583
14,"test.sc_dark.Darkbad","badleft",1,412
14,"test.sc_dark.Darkbad","darkleft",1,461
14,"test.sc_dark.Darkbad","darkleft",1,522
14,"test.sc_dark.Darkbad","badleft",1,585
14,"test.sc_dark.Darkbad","goodright",1,533
14,"test.sc_dark.Darkbad","darkleft",1,430
14,"test.sc_dark.Darkbad","badleft",1,531
14,"test.sc_dark.Darkbad","badleft",1,509
14,"test.sc_dark.Darkbad","goodright",1,625
14,"test.sc_dark.Darkbad","goodright",0,589
14,"test.sc_dark.Darkbad","badleft",1,681
14,"test.sc_dark.Darkbad","darkleft",1,488
14,"test.sc_dark.Darkbad","goodright",1,935
14,"test.sc_dark.Darkbad","badleft",1,600
14,"test.sc_dark.Darkbad","goodright",1,1167
14,"test.sc_dark.Darkbad","badleft",1,517
14,"test.sc_dark.Darkbad","goodright",1,612
14,"test.sc_dark.Darkbad","badleft",1,445
14,"test.sc_dark.Darkbad","goodright",1,700
14,"test.sc_dark.Darkbad","badleft",1,534
14,"test.sc_dark.Darkbad","goodright",1,511
14,"test.sc_dark.Darkbad","goodright",0,564
14,"test.sc_dark.Darkbad","goodright",1,1346
14,"test.sc_dark.Darkbad","badleft",1,477
14,"test.sc_dark.Darkbad","goodright",1,1109
14,"test.sc_dark.Darkbad","darkleft",1,448
14,"test.sc_dark.Darkbad","darkleft",1,386
14,"test.sc_dark.Darkbad","goodright",1,534
14,"test.sc_dark.Darkbad","darkleft",1,600
14,"test.sc_dark.Darkbad","badleft",1,1295
14,"test.sc_dark.Darkbad","darkleft",1,399
14,"test.sc_dark.Darkbad","goodright",1,526
14,"test.sc_dark.Darkbad","goodright",1,597
14,"test.sc_dark.Darkbad","darkleft",1,516
14,"test.sc_dark.Darkbad","darkleft",1,363
14,"test.sc_dark.Darkbad","goodright",1,1130
14,"test.sc_dark.Darkbad","badleft",1,587
14,"test.sc_dark.Darkbad","darkleft",1,703
14,"test.sc_dark.Darkbad","badleft",1,675
14,"test.sc_dark.Darkbad","goodright",1,623
14,"test.sc_dark.Darkbad","goodright",1,811
14,"test.sc_dark.Darkbad","darkleft",1,548
14,"test.sc_dark.Darkbad","darkleft",1,345
14,"test.sc_dark.Darkbad","goodright",1,989
14,"test.sc_dark.Darkbad","badleft",1,441
14,"test.sc_dark.Darkbad","goodright",1,592
14,"test.sc_dark.Darkbad","darkleft",1,415
14,"test.sc_dark.Darkbad","goodright",1,697
14,"test.sc_dark.Darkbad","goodright",1,386
14,"test.sc_dark.Darkbad","goodright",1,462
14,"test.sc_dark.Darkbad","darkleft",1,443
23,"test.sc_dark.Darkgood","goodright",1,818
23,"test.sc_dark.Darkgood","badleft",1,611
23,"test.sc_dark.Darkgood","darkright",1,764
23,"test.sc_dark.Darkgood","badleft",1,955
23,"test.sc_dark.Darkgood","badleft",1,623
23,"test.sc_dark.Darkgood","darkright",1,715
23,"test.sc_dark.Darkgood","badleft",1,1351
23,"test.sc_dark.Darkgood","badleft",1,570
23,"test.sc_dark.Darkgood","badleft",1,443
23,"test.sc_dark.Darkgood","darkright",1,706
23,"test.sc_dark.Darkgood","badleft",1,903
23,"test.sc_dark.Darkgood","badleft",1,511
23,"test.sc_dark.Darkgood","goodright",1,1100
23,"test.sc_dark.Darkgood","badleft",1,709
23,"test.sc_dark.Darkgood","darkright",1,769
23,"test.sc_dark.Darkgood","darkright",1,474
23,"test.sc_dark.Darkgood","goodright",1,1086
23,"test.sc_dark.Darkgood","darkright",1,607
23,"test.sc_dark.Darkgood","badleft",0,790
23,"test.sc_dark.Darkgood","darkright",1,1482
23,"test.sc_dark.Darkgood","badleft",1,1495
23,"test.sc_dark.Darkgood","badleft",1,607
23,"test.sc_dark.Darkgood","darkright",1,801
23,"test.sc_dark.Darkgood","goodright",1,1375
23,"test.sc_dark.Darkgood","goodright",1,736
23,"test.sc_dark.Darkgood","badleft",1,641
23,"test.sc_dark.Darkgood","goodright",1,808
23,"test.sc_dark.Darkgood","goodright",1,630
23,"test.sc_dark.Darkgood","goodright",1,1154
23,"test.sc_dark.Darkgood","goodright",1,574
23,"test.sc_dark.Darkgood","goodright",1,495
23,"test.sc_dark.Darkgood","badleft",1,481
23,"test.sc_dark.Darkgood","badleft",1,600
23,"test.sc_dark.Darkgood","darkright",1,687
23,"test.sc_dark.Darkgood","darkright",1,481
23,"test.sc_dark.Darkgood","badleft",1,815
23,"test.sc_dark.Darkgood","darkright",0,872
23,"test.sc_dark.Darkgood","badleft",0,1156
23,"test.sc_dark.Darkgood","goodright",1,1015
23,"test.sc_dark.Darkgood","badleft",1,1104
23,"test.sc_dark.Darkgood","badleft",1,1996
23,"test.sc_dark.Darkgood","darkright",1,737
23,"test.sc_dark.Darkgood","darkright",1,522
23,"test.sc_dark.Darkgood","goodright",1,769
23,"test.sc_dark.Darkgood","goodright",1,631
23,"test.sc_dark.Darkgood","darkright",1,822
23,"test.sc_dark.Darkgood","badleft",1,1063
23,"test.sc_dark.Darkgood","goodright",1,667
23,"test.sc_dark.Darkgood","darkright",1,1431
23,"test.sc_dark.Darkgood","badleft",1,1258
23,"test.sc_dark.Darkgood","goodright",1,650
23,"test.sc_dark.Darkgood","badleft",1,588
23,"test.sc_dark.Darkgood","goodright",1,608
23,"test.sc_dark.Darkgood","darkright",1,689
23,"test.sc_dark.Darkgood","goodright",1,875
23,"test.sc_dark.Darkgood","badleft",1,711
23,"test.sc_dark.Darkgood","darkright",1,602
23,"test.sc_dark.Darkgood","darkright",1,473
23,"test.sc_dark.Darkgood","badleft",1,1510
23,"test.sc_dark.Darkgood","goodright",1,865
23,"test.sc_dark.Darkgood","badleft",1,756
23,"test.sc_dark.Darkgood","darkright",1,619
23,"test.sc_dark.Darkgood","badleft",1,1364
23,"test.sc_dark.Darkgood","badleft",1,562
23,"test.sc_dark.Darkgood","badleft",0,649
23,"test.sc_dark.Darkgood","badleft",1,1223
23,"test.sc_dark.Darkgood","goodright",1,1115
23,"test.sc_dark.Darkgood","darkright",1,585
23,"test.sc_dark.Darkgood","darkright",1,453
23,"test.sc_dark.Darkgood","goodright",1,951
23,"test.sc_dark.Darkgood","goodright",1,691
23,"test.sc_dark.Darkgood","badleft",1,628
23,"test.sc_dark.Darkbad","badleft",1,566
23,"test.sc_dark.Darkbad","goodright",0,429
23,"test.sc_dark.Darkbad","goodright",1,1393
23,"test.sc_dark.Darkbad","goodright",1,572
23,"test.sc_dark.Darkbad","darkleft",1,549
23,"test.sc_dark.Darkbad","badleft",1,706
23,"test.sc_dark.Darkbad","goodright",1,534
23,"test.sc_dark.Darkbad","darkleft",1,655
23,"test.sc_dark.Darkbad","darkleft",1,441
23,"test.sc_dark.Darkbad","goodright",1,552
23,"test.sc_dark.Darkbad","darkleft",0,519
23,"test.sc_dark.Darkbad","goodright",1,838
23,"test.sc_dark.Darkbad","darkleft",1,524
23,"test.sc_dark.Darkbad","goodright",1,1459
23,"test.sc_dark.Darkbad","darkleft",1,1246
23,"test.sc_dark.Darkbad","badleft",1,652
23,"test.sc_dark.Darkbad","goodright",1,725
23,"test.sc_dark.Darkbad","badleft",1,1732
23,"test.sc_dark.Darkbad","goodright",1,516
23,"test.sc_dark.Darkbad","badleft",0,539
23,"test.sc_dark.Darkbad","darkleft",1,743
23,"test.sc_dark.Darkbad","goodright",1,691
23,"test.sc_dark.Darkbad","goodright",1,556
23,"test.sc_dark.Darkbad","badleft",1,843
23,"test.sc_dark.Darkbad","goodright",1,898
23,"test.sc_dark.Darkbad","darkleft",1,762
23,"test.sc_dark.Darkbad","badleft",1,817
23,"test.sc_dark.Darkbad","darkleft",1,378
23,"test.sc_dark.Darkbad","darkleft",1,335
23,"test.sc_dark.Darkbad","badleft",1,665
23,"test.sc_dark.Darkbad","badleft",1,557
23,"test.sc_dark.Darkbad","goodright",1,604
23,"test.sc_dark.Darkbad","badleft",1,627
23,"test.sc_dark.Darkbad","goodright",1,647
23,"test.sc_dark.Darkbad","darkleft",1,576
23,"test.sc_dark.Darkbad","badleft",1,794
23,"test.sc_dark.Darkbad","goodright",1,662
23,"test.sc_dark.Darkbad","goodright",1,519
23,"test.sc_dark.Darkbad","goodright",1,478
23,"test.sc_dark.Darkbad","darkleft",1,501
23,"test.sc_dark.Darkbad","darkleft",1,537
23,"test.sc_dark.Darkbad","badleft",1,811
23,"test.sc_dark.Darkbad","goodright",1,548
23,"test.sc_dark.Darkbad","darkleft",1,464
23,"test.sc_dark.Darkbad","darkleft",1,381
23,"test.sc_dark.Darkbad","darkleft",1,505
23,"test.sc_dark.Darkbad","badleft",1,478
23,"test.sc_dark.Darkbad","badleft",1,549
23,"test.sc_dark.Darkbad","goodright",1,473
23,"test.sc_dark.Darkbad","goodright",1,485
23,"test.sc_dark.Darkbad","goodright",1,524
23,"test.sc_dark.Darkbad","goodright",1,459
23,"test.sc_dark.Darkbad","goodright",1,701
23,"test.sc_dark.Darkbad","darkleft",1,521
23,"test.sc_dark.Darkbad","goodright",1,696
23,"test.sc_dark.Darkbad","badleft",1,665
23,"test.sc_dark.Darkbad","badleft",1,598
23,"test.sc_dark.Darkbad","badleft",1,396
23,"test.sc_dark.Darkbad","goodright",1,579
23,"test.sc_dark.Darkbad","badleft",1,477
23,"test.sc_dark.Darkbad","darkleft",1,476
23,"test.sc_dark.Darkbad","goodright",1,579
23,"test.sc_dark.Darkbad","badleft",1,677
23,"test.sc_dark.Darkbad","goodright",1,755
23,"test.sc_dark.Darkbad","goodright",1,591
23,"test.sc_dark.Darkbad","goodright",1,835
23,"test.sc_dark.Darkbad","goodright",1,479
23,"test.sc_dark.Darkbad","darkleft",1,454
23,"test.sc_dark.Darkbad","badleft",0,448
23,"test.sc_dark.Darkbad","badleft",1,695
23,"test.sc_dark.Darkbad","darkleft",1,424
23,"test.sc_dark.Darkbad","darkleft",1,493
29,"test.sc_dark.Darkbad","goodright",1,1233
29,"test.sc_dark.Darkbad","goodright",1,525
29,"test.sc_dark.Darkbad","darkleft",0,886
29,"test.sc_dark.Darkbad","badleft",1,1309
29,"test.sc_dark.Darkbad","goodright",1,1216
29,"test.sc_dark.Darkbad","badleft",1,720
29,"test.sc_dark.Darkbad","goodright",1,575
29,"test.sc_dark.Darkbad","badleft",1,609
29,"test.sc_dark.Darkbad","darkleft",0,706
29,"test.sc_dark.Darkbad","goodright",1,1038
29,"test.sc_dark.Darkbad","badleft",1,692
29,"test.sc_dark.Darkbad","badleft",1,614
29,"test.sc_dark.Darkbad","darkleft",0,727
29,"test.sc_dark.Darkbad","badleft",1,1070
29,"test.sc_dark.Darkbad","darkleft",0,665
29,"test.sc_dark.Darkbad","badleft",1,685
29,"test.sc_dark.Darkbad","goodright",1,548
29,"test.sc_dark.Darkbad","badleft",1,768
29,"test.sc_dark.Darkbad","darkleft",0,633
29,"test.sc_dark.Darkbad","badleft",1,782
29,"test.sc_dark.Darkbad","darkleft",0,1553
29,"test.sc_dark.Darkbad","goodright",1,1524
29,"test.sc_dark.Darkbad","darkleft",0,1642
29,"test.sc_dark.Darkbad","goodright",1,775
29,"test.sc_dark.Darkbad","badleft",1,616
29,"test.sc_dark.Darkbad","goodright",1,1162
29,"test.sc_dark.Darkbad","goodright",1,2016
29,"test.sc_dark.Darkbad","darkleft",0,711
29,"test.sc_dark.Darkbad","darkleft",0,718
29,"test.sc_dark.Darkbad","badleft",1,1860
29,"test.sc_dark.Darkbad","badleft",1,924
29,"test.sc_dark.Darkbad","badleft",1,618
29,"test.sc_dark.Darkbad","goodright",1,532
29,"test.sc_dark.Darkbad","goodright",1,605
29,"test.sc_dark.Darkbad","darkleft",0,543
29,"test.sc_dark.Darkbad","goodright",1,547
29,"test.sc_dark.Darkbad","darkleft",0,671
29,"test.sc_dark.Darkbad","goodright",1,467
29,"test.sc_dark.Darkbad","goodright",1,480
29,"test.sc_dark.Darkbad","badleft",1,678
29,"test.sc_dark.Darkbad","goodright",1,669
29,"test.sc_dark.Darkbad","darkleft",0,577
29,"test.sc_dark.Darkbad","goodright",1,627
29,"test.sc_dark.Darkbad","darkleft",0,1271
29,"test.sc_dark.Darkbad","goodright",1,626
29,"test.sc_dark.Darkbad","goodright",1,654
29,"test.sc_dark.Darkbad","badleft",1,776
29,"test.sc_dark.Darkbad","darkleft",0,529
29,"test.sc_dark.Darkbad","darkleft",0,699
29,"test.sc_dark.Darkbad","badleft",1,1196
29,"test.sc_dark.Darkbad","goodright",1,719
29,"test.sc_dark.Darkbad","goodright",1,566
29,"test.sc_dark.Darkbad","goodright",1,469
29,"test.sc_dark.Darkbad","goodright",1,473
29,"test.sc_dark.Darkbad","badleft",1,742
29,"test.sc_dark.Darkbad","goodright",1,466
29,"test.sc_dark.Darkbad","darkleft",0,694
29,"test.sc_dark.Darkbad","badleft",1,1007
29,"test.sc_dark.Darkbad","darkleft",0,648
29,"test.sc_dark.Darkbad","goodright",1,735
29,"test.sc_dark.Darkbad","goodright",1,592
29,"test.sc_dark.Darkbad","darkleft",0,559
29,"test.sc_dark.Darkbad","darkleft",0,502
29,"test.sc_dark.Darkbad","darkleft",0,554
29,"test.sc_dark.Darkbad","darkleft",0,537
29,"test.sc_dark.Darkbad","badleft",1,579
29,"test.sc_dark.Darkbad","goodright",1,957
29,"test.sc_dark.Darkbad","badleft",1,523
29,"test.sc_dark.Darkbad","goodright",1,594
29,"test.sc_dark.Darkbad","goodright",1,526
29,"test.sc_dark.Darkbad","badleft",1,701
29,"test.sc_dark.Darkbad","goodright",1,582
29,"test.sc_dark.Darkgood","goodright",1,611
29,"test.sc_dark.Darkgood","darkright",1,637
29,"test.sc_dark.Darkgood","badleft",1,828
29,"test.sc_dark.Darkgood","badleft",0,1983
29,"test.sc_dark.Darkgood","darkright",1,633
29,"test.sc_dark.Darkgood","badleft",1,1678
29,"test.sc_dark.Darkgood","badleft",1,843
29,"test.sc_dark.Darkgood","darkright",1,785
29,"test.sc_dark.Darkgood","darkright",1,549
29,"test.sc_dark.Darkgood","badleft",1,850
29,"test.sc_dark.Darkgood","badleft",1,683
29,"test.sc_dark.Darkgood","badleft",1,585
29,"test.sc_dark.Darkgood","goodright",1,662
29,"test.sc_dark.Darkgood","darkright",1,602
29,"test.sc_dark.Darkgood","badleft",1,616
29,"test.sc_dark.Darkgood","badleft",1,650
29,"test.sc_dark.Darkgood","goodright",1,595
29,"test.sc_dark.Darkgood","badleft",1,735
29,"test.sc_dark.Darkgood","badleft",1,561
29,"test.sc_dark.Darkgood","goodright",1,792
29,"test.sc_dark.Darkgood","goodright",1,532
29,"test.sc_dark.Darkgood","goodright",1,461
29,"test.sc_dark.Darkgood","darkright",1,586
29,"test.sc_dark.Darkgood","badleft",1,526
29,"test.sc_dark.Darkgood","badleft",1,437
29,"test.sc_dark.Darkgood","darkright",1,1028
29,"test.sc_dark.Darkgood","badleft",1,767
29,"test.sc_dark.Darkgood","darkright",1,1409
29,"test.sc_dark.Darkgood","darkright",1,497
29,"test.sc_dark.Darkgood","goodright",1,1467
29,"test.sc_dark.Darkgood","badleft",1,557
29,"test.sc_dark.Darkgood","badleft",1,516
29,"test.sc_dark.Darkgood","goodright",1,515
29,"test.sc_dark.Darkgood","goodright",1,887
29,"test.sc_dark.Darkgood","badleft",1,750
29,"test.sc_dark.Darkgood","darkright",1,514
29,"test.sc_dark.Darkgood","goodright",1,678
29,"test.sc_dark.Darkgood","badleft",1,597
29,"test.sc_dark.Darkgood","darkright",1,492
29,"test.sc_dark.Darkgood","badleft",1,1325
29,"test.sc_dark.Darkgood","goodright",1,419
29,"test.sc_dark.Darkgood","goodright",1,501
29,"test.sc_dark.Darkgood","goodright",1,487
29,"test.sc_dark.Darkgood","darkright",0,560
29,"test.sc_dark.Darkgood","goodright",1,439
29,"test.sc_dark.Darkgood","badleft",1,798
29,"test.sc_dark.Darkgood","darkright",1,1109
29,"test.sc_dark.Darkgood","goodright",1,504
29,"test.sc_dark.Darkgood","darkright",1,677
29,"test.sc_dark.Darkgood","darkright",1,539
29,"test.sc_dark.Darkgood","darkright",1,560
29,"test.sc_dark.Darkgood","badleft",1,726
29,"test.sc_dark.Darkgood","darkright",1,568
29,"test.sc_dark.Darkgood","goodright",1,807
29,"test.sc_dark.Darkgood","badleft",1,1357
29,"test.sc_dark.Darkgood","badleft",1,579
29,"test.sc_dark.Darkgood","badleft",1,508
29,"test.sc_dark.Darkgood","badleft",1,521
29,"test.sc_dark.Darkgood","badleft",1,488
29,"test.sc_dark.Darkgood","darkright",1,649
29,"test.sc_dark.Darkgood","badleft",1,1195
29,"test.sc_dark.Darkgood","badleft",1,758
29,"test.sc_dark.Darkgood","goodright",1,469
29,"test.sc_dark.Darkgood","badleft",1,729
29,"test.sc_dark.Darkgood","badleft",1,538
29,"test.sc_dark.Darkgood","darkright",1,1046
29,"test.sc_dark.Darkgood","goodright",1,613
29,"test.sc_dark.Darkgood","goodright",1,558
29,"test.sc_dark.Darkgood","goodright",1,573
29,"test.sc_dark.Darkgood","goodright",1,471
29,"test.sc_dark.Darkgood","darkright",1,885
29,"test.sc_dark.Darkgood","darkright",1,487
27,"test.sc_dark.Darkbad","darkleft",1,760
27,"test.sc_dark.Darkbad","goodright",1,703
27,"test.sc_dark.Darkbad","goodright",1,651
27,"test.sc_dark.Darkbad","darkleft",1,525
27,"test.sc_dark.Darkbad","goodright",1,596
27,"test.sc_dark.Darkbad","goodright",1,479
27,"test.sc_dark.Darkbad","darkleft",1,623
27,"test.sc_dark.Darkbad","goodright",1,955
27,"test.sc_dark.Darkbad","badleft",1,622
27,"test.sc_dark.Darkbad","darkleft",1,1635
27,"test.sc_dark.Darkbad","darkleft",1,560
27,"test.sc_dark.Darkbad","badleft",1,815
27,"test.sc_dark.Darkbad","goodright",1,752
27,"test.sc_dark.Darkbad","badleft",1,700
27,"test.sc_dark.Darkbad","badleft",1,829
27,"test.sc_dark.Darkbad","badleft",1,857
27,"test.sc_dark.Darkbad","goodright",1,690
27,"test.sc_dark.Darkbad","badleft",1,588
27,"test.sc_dark.Darkbad","darkleft",1,584
27,"test.sc_dark.Darkbad","goodright",1,588
27,"test.sc_dark.Darkbad","darkleft",1,520
27,"test.sc_dark.Darkbad","goodright",1,607
27,"test.sc_dark.Darkbad","badleft",1,1014
27,"test.sc_dark.Darkbad","darkleft",1,487
27,"test.sc_dark.Darkbad","goodright",1,702
27,"test.sc_dark.Darkbad","darkleft",1,666
27,"test.sc_dark.Darkbad","goodright",1,958
27,"test.sc_dark.Darkbad","darkleft",1,820
27,"test.sc_dark.Darkbad","goodright",1,1557
27,"test.sc_dark.Darkbad","goodright",1,475
27,"test.sc_dark.Darkbad","darkleft",1,490
27,"test.sc_dark.Darkbad","badleft",1,692
27,"test.sc_dark.Darkbad","goodright",1,733
27,"test.sc_dark.Darkbad","badleft",1,822
27,"test.sc_dark.Darkbad","goodright",1,887
27,"test.sc_dark.Darkbad","badleft",1,590
27,"test.sc_dark.Darkbad","badleft",1,674
27,"test.sc_dark.Darkbad","darkleft",1,505
27,"test.sc_dark.Darkbad","goodright",1,613
27,"test.sc_dark.Darkbad","badleft",1,502
27,"test.sc_dark.Darkbad","darkleft",1,715
27,"test.sc_dark.Darkbad","goodright",1,710
27,"test.sc_dark.Darkbad","badleft",1,683
27,"test.sc_dark.Darkbad","badleft",1,633
27,"test.sc_dark.Darkbad","goodright",1,1038
27,"test.sc_dark.Darkbad","badleft",1,556
27,"test.sc_dark.Darkbad","goodright",1,507
27,"test.sc_dark.Darkbad","goodright",1,623
27,"test.sc_dark.Darkbad","goodright",1,691
27,"test.sc_dark.Darkbad","darkleft",1,596
27,"test.sc_dark.Darkbad","goodright",1,1347
27,"test.sc_dark.Darkbad","badleft",1,750
27,"test.sc_dark.Darkbad","darkleft",1,650
27,"test.sc_dark.Darkbad","goodright",1,940
27,"test.sc_dark.Darkbad","darkleft",1,999
27,"test.sc_dark.Darkbad","darkleft",1,686
27,"test.sc_dark.Darkbad","badleft",1,660
27,"test.sc_dark.Darkbad","badleft",1,478
27,"test.sc_dark.Darkbad","goodright",1,533
27,"test.sc_dark.Darkbad","badleft",1,662
27,"test.sc_dark.Darkbad","darkleft",1,682
27,"test.sc_dark.Darkbad","goodright",1,737
27,"test.sc_dark.Darkbad","darkleft",1,658
27,"test.sc_dark.Darkbad","goodright",1,692
27,"test.sc_dark.Darkbad","goodright",1,741
27,"test.sc_dark.Darkbad","goodright",1,439
27,"test.sc_dark.Darkbad","goodright",1,510
27,"test.sc_dark.Darkbad","darkleft",1,523
27,"test.sc_dark.Darkbad","badleft",1,761
27,"test.sc_dark.Darkbad","badleft",1,632
27,"test.sc_dark.Darkbad","darkleft",1,598
27,"test.sc_dark.Darkbad","goodright",1,1005
27,"test.sc_dark.Darkgood","goodright",1,684
27,"test.sc_dark.Darkgood","badleft",1,579
27,"test.sc_dark.Darkgood","goodright",1,508
27,"test.sc_dark.Darkgood","badleft",0,473
27,"test.sc_dark.Darkgood","darkright",1,800
27,"test.sc_dark.Darkgood","goodright",1,814
27,"test.sc_dark.Darkgood","badleft",1,712
27,"test.sc_dark.Darkgood","badleft",1,716
27,"test.sc_dark.Darkgood","goodright",1,871
27,"test.sc_dark.Darkgood","badleft",1,923
27,"test.sc_dark.Darkgood","darkright",1,674
27,"test.sc_dark.Darkgood","darkright",1,1304
27,"test.sc_dark.Darkgood","badleft",1,644
27,"test.sc_dark.Darkgood","badleft",1,466
27,"test.sc_dark.Darkgood","badleft",1,471
27,"test.sc_dark.Darkgood","goodright",1,675
27,"test.sc_dark.Darkgood","darkright",1,858
27,"test.sc_dark.Darkgood","goodright",1,595
27,"test.sc_dark.Darkgood","goodright",1,599
27,"test.sc_dark.Darkgood","darkright",1,582
27,"test.sc_dark.Darkgood","darkright",1,450
27,"test.sc_dark.Darkgood","badleft",1,948
27,"test.sc_dark.Darkgood","badleft",1,1271
27,"test.sc_dark.Darkgood","badleft",1,587
27,"test.sc_dark.Darkgood","badleft",1,567
27,"test.sc_dark.Darkgood","badleft",1,430
27,"test.sc_dark.Darkgood","darkright",1,914
27,"test.sc_dark.Darkgood","goodright",1,942
27,"test.sc_dark.Darkgood","badleft",1,639
27,"test.sc_dark.Darkgood","badleft",1,710
27,"test.sc_dark.Darkgood","goodright",1,522
27,"test.sc_dark.Darkgood","badleft",1,705
27,"test.sc_dark.Darkgood","goodright",1,765
27,"test.sc_dark.Darkgood","goodright",0,675
27,"test.sc_dark.Darkgood","goodright",1,687
27,"test.sc_dark.Darkgood","darkright",1,729
27,"test.sc_dark.Darkgood","goodright",1,839
27,"test.sc_dark.Darkgood","badleft",1,838
27,"test.sc_dark.Darkgood","darkright",1,852
27,"test.sc_dark.Darkgood","badleft",1,797
27,"test.sc_dark.Darkgood","goodright",1,2212
27,"test.sc_dark.Darkgood","badleft",1,627
27,"test.sc_dark.Darkgood","badleft",1,863
27,"test.sc_dark.Darkgood","darkright",1,667
27,"test.sc_dark.Darkgood","darkright",1,495
27,"test.sc_dark.Darkgood","goodright",1,569
27,"test.sc_dark.Darkgood","badleft",1,575
27,"test.sc_dark.Darkgood","darkright",1,521
27,"test.sc_dark.Darkgood","badleft",1,784
27,"test.sc_dark.Darkgood","badleft",1,644
27,"test.sc_dark.Darkgood","goodright",1,1091
27,"test.sc_dark.Darkgood","badleft",1,1499
27,"test.sc_dark.Darkgood","darkright",1,598
27,"test.sc_dark.Darkgood","goodright",1,565
27,"test.sc_dark.Darkgood","darkright",1,430
27,"test.sc_dark.Darkgood","darkright",1,382
27,"test.sc_dark.Darkgood","darkright",1,474
27,"test.sc_dark.Darkgood","darkright",1,425
27,"test.sc_dark.Darkgood","goodright",1,590
27,"test.sc_dark.Darkgood","badleft",1,586
27,"test.sc_dark.Darkgood","badleft",1,678
27,"test.sc_dark.Darkgood","darkright",1,509
27,"test.sc_dark.Darkgood","goodright",1,649
27,"test.sc_dark.Darkgood","goodright",1,555
27,"test.sc_dark.Darkgood","badleft",1,623
27,"test.sc_dark.Darkgood","badleft",1,555
27,"test.sc_dark.Darkgood","darkright",1,506
27,"test.sc_dark.Darkgood","badleft",1,686
27,"test.sc_dark.Darkgood","darkright",1,495
27,"test.sc_dark.Darkgood","badleft",1,1201
27,"test.sc_dark.Darkgood","darkright",1,679
27,"test.sc_dark.Darkgood","goodright",1,774
20,"test.sc_dark.Darkbad","darkleft",1,487
20,"test.sc_dark.Darkbad","darkleft",1,473
20,"test.sc_dark.Darkbad","goodright",1,549
20,"test.sc_dark.Darkbad","badleft",1,537
20,"test.sc_dark.Darkbad","goodright",1,531
20,"test.sc_dark.Darkbad","goodright",1,533
20,"test.sc_dark.Darkbad","goodright",1,462
20,"test.sc_dark.Darkbad","badleft",1,467
20,"test.sc_dark.Darkbad","darkleft",1,407
20,"test.sc_dark.Darkbad","darkleft",1,465
20,"test.sc_dark.Darkbad","goodright",1,917
20,"test.sc_dark.Darkbad","badleft",1,500
20,"test.sc_dark.Darkbad","badleft",1,533
20,"test.sc_dark.Darkbad","goodright",1,527
20,"test.sc_dark.Darkbad","badleft",1,646
20,"test.sc_dark.Darkbad","goodright",1,525
20,"test.sc_dark.Darkbad","goodright",1,388
20,"test.sc_dark.Darkbad","goodright",1,528
20,"test.sc_dark.Darkbad","darkleft",1,441
20,"test.sc_dark.Darkbad","badleft",1,488
20,"test.sc_dark.Darkbad","darkleft",1,530
20,"test.sc_dark.Darkbad","goodright",1,556
20,"test.sc_dark.Darkbad","badleft",1,459
20,"test.sc_dark.Darkbad","darkleft",0,519
20,"test.sc_dark.Darkbad","goodright",1,654
20,"test.sc_dark.Darkbad","goodright",1,576
20,"test.sc_dark.Darkbad","goodright",1,409
20,"test.sc_dark.Darkbad","goodright",1,539
20,"test.sc_dark.Darkbad","badleft",1,644
20,"test.sc_dark.Darkbad","goodright",1,427
20,"test.sc_dark.Darkbad","badleft",0,432
20,"test.sc_dark.Darkbad","goodright",1,556
20,"test.sc_dark.Darkbad","goodright",1,691
20,"test.sc_dark.Darkbad","badleft",1,492
20,"test.sc_dark.Darkbad","darkleft",1,478
20,"test.sc_dark.Darkbad","badleft",0,541
20,"test.sc_dark.Darkbad","badleft",1,695
20,"test.sc_dark.Darkbad","goodright",1,600
20,"test.sc_dark.Darkbad","badleft",1,663
20,"test.sc_dark.Darkbad","goodright",1,515
20,"test.sc_dark.Darkbad","goodright",1,527
20,"test.sc_dark.Darkbad","darkleft",1,769
20,"test.sc_dark.Darkbad","badleft",1,1047
20,"test.sc_dark.Darkbad","darkleft",1,576
20,"test.sc_dark.Darkbad","badleft",1,626
20,"test.sc_dark.Darkbad","darkleft",1,550
20,"test.sc_dark.Darkbad","badleft",0,650
20,"test.sc_dark.Darkbad","goodright",1,684
20,"test.sc_dark.Darkbad","goodright",1,722
20,"test.sc_dark.Darkbad","badleft",1,537
20,"test.sc_dark.Darkbad","badleft",1,563
20,"test.sc_dark.Darkbad","goodright",1,610
20,"test.sc_dark.Darkbad","goodright",1,539
20,"test.sc_dark.Darkbad","goodright",1,549
20,"test.sc_dark.Darkbad","darkleft",1,481
20,"test.sc_dark.Darkbad","darkleft",1,544
20,"test.sc_dark.Darkbad","darkleft",1,524
20,"test.sc_dark.Darkbad","darkleft",1,454
20,"test.sc_dark.Darkbad","goodright",1,616
20,"test.sc_dark.Darkbad","badleft",1,505
20,"test.sc_dark.Darkbad","darkleft",1,549
20,"test.sc_dark.Darkbad","darkleft",1,522
20,"test.sc_dark.Darkbad","badleft",1,1041
20,"test.sc_dark.Darkbad","goodright",1,407
20,"test.sc_dark.Darkbad","darkleft",1,584
20,"test.sc_dark.Darkbad","goodright",0,693
20,"test.sc_dark.Darkbad","darkleft",1,670
20,"test.sc_dark.Darkbad","goodright",1,418
20,"test.sc_dark.Darkbad","darkleft",1,575
20,"test.sc_dark.Darkbad","darkleft",1,504
20,"test.sc_dark.Darkbad","badleft",1,589
20,"test.sc_dark.Darkbad","goodright",1,481
20,"test.sc_dark.Darkgood","badleft",1,799
20,"test.sc_dark.Darkgood","darkright",1,510
20,"test.sc_dark.Darkgood","darkright",1,482
20,"test.sc_dark.Darkgood","goodright",1,481
20,"test.sc_dark.Darkgood","goodright",1,688
20,"test.sc_dark.Darkgood","goodright",1,518
20,"test.sc_dark.Darkgood","badleft",1,589
20,"test.sc_dark.Darkgood","badleft",1,618
20,"test.sc_dark.Darkgood","darkright",1,503
20,"test.sc_dark.Darkgood","darkright",1,458
20,"test.sc_dark.Darkgood","badleft",1,555
20,"test.sc_dark.Darkgood","darkright",1,475
20,"test.sc_dark.Darkgood","goodright",1,423
20,"test.sc_dark.Darkgood","darkright",1,515
20,"test.sc_dark.Darkgood","goodright",1,515
20,"test.sc_dark.Darkgood","badleft",1,639
20,"test.sc_dark.Darkgood","badleft",1,646
20,"test.sc_dark.Darkgood","badleft",1,812
20,"test.sc_dark.Darkgood","darkright",1,645
20,"test.sc_dark.Darkgood","goodright",1,724
20,"test.sc_dark.Darkgood","goodright",1,731
20,"test.sc_dark.Darkgood","badleft",0,468
20,"test.sc_dark.Darkgood","darkright",1,464
20,"test.sc_dark.Darkgood","goodright",1,493
20,"test.sc_dark.Darkgood","badleft",1,679
20,"test.sc_dark.Darkgood","darkright",1,557
20,"test.sc_dark.Darkgood","badleft",1,764
20,"test.sc_dark.Darkgood","darkright",1,498
20,"test.sc_dark.Darkgood","badleft",1,1108
20,"test.sc_dark.Darkgood","badleft",1,736
20,"test.sc_dark.Darkgood","goodright",1,569
20,"test.sc_dark.Darkgood","darkright",1,435
20,"test.sc_dark.Darkgood","badleft",1,647
20,"test.sc_dark.Darkgood","darkright",1,552
20,"test.sc_dark.Darkgood","badleft",1,637
20,"test.sc_dark.Darkgood","badleft",1,628
20,"test.sc_dark.Darkgood","badleft",1,552
20,"test.sc_dark.Darkgood","goodright",1,468
20,"test.sc_dark.Darkgood","darkright",1,552
20,"test.sc_dark.Darkgood","goodright",1,541
20,"test.sc_dark.Darkgood","badleft",1,542
20,"test.sc_dark.Darkgood","goodright",1,555
20,"test.sc_dark.Darkgood","darkright",1,489
20,"test.sc_dark.Darkgood","goodright",1,491
20,"test.sc_dark.Darkgood","badleft",1,629
20,"test.sc_dark.Darkgood","darkright",1,489
20,"test.sc_dark.Darkgood","badleft",1,499
20,"test.sc_dark.Darkgood","goodright",1,580
20,"test.sc_dark.Darkgood","badleft",1,542
20,"test.sc_dark.Darkgood","badleft",0,511
20,"test.sc_dark.Darkgood","badleft",1,524
20,"test.sc_dark.Darkgood","darkright",1,514
20,"test.sc_dark.Darkgood","goodright",1,535
20,"test.sc_dark.Darkgood","badleft",1,545
20,"test.sc_dark.Darkgood","goodright",1,469
20,"test.sc_dark.Darkgood","goodright",1,577
20,"test.sc_dark.Darkgood","badleft",1,507
20,"test.sc_dark.Darkgood","badleft",0,423
20,"test.sc_dark.Darkgood","darkright",1,523
20,"test.sc_dark.Darkgood","darkright",1,490
20,"test.sc_dark.Darkgood","darkright",1,452
20,"test.sc_dark.Darkgood","badleft",1,526
20,"test.sc_dark.Darkgood","goodright",1,453
20,"test.sc_dark.Darkgood","goodright",1,535
20,"test.sc_dark.Darkgood","badleft",1,632
20,"test.sc_dark.Darkgood","goodright",1,524
20,"test.sc_dark.Darkgood","badleft",1,451
20,"test.sc_dark.Darkgood","darkright",1,461
20,"test.sc_dark.Darkgood","darkright",1,481
20,"test.sc_dark.Darkgood","goodright",1,504
20,"test.sc_dark.Darkgood","badleft",1,541
20,"test.sc_dark.Darkgood","badleft",0,566
17,"test.sc_dark.Darkgood","goodright",1,502
17,"test.sc_dark.Darkgood","badleft",1,535
17,"test.sc_dark.Darkgood","darkright",1,449
17,"test.sc_dark.Darkgood","goodright",1,531
17,"test.sc_dark.Darkgood","goodright",1,573
17,"test.sc_dark.Darkgood","goodright",1,398
17,"test.sc_dark.Darkgood","darkright",1,493
17,"test.sc_dark.Darkgood","badleft",1,495
17,"test.sc_dark.Darkgood","badleft",1,465
17,"test.sc_dark.Darkgood","badleft",1,525
17,"test.sc_dark.Darkgood","darkright",1,430
17,"test.sc_dark.Darkgood","darkright",1,438
17,"test.sc_dark.Darkgood","badleft",1,621
17,"test.sc_dark.Darkgood","goodright",1,462
17,"test.sc_dark.Darkgood","darkright",0,411
17,"test.sc_dark.Darkgood","badleft",1,820
17,"test.sc_dark.Darkgood","darkright",1,384
17,"test.sc_dark.Darkgood","badleft",1,1837
17,"test.sc_dark.Darkgood","darkright",1,794
17,"test.sc_dark.Darkgood","darkright",1,360
17,"test.sc_dark.Darkgood","goodright",1,415
17,"test.sc_dark.Darkgood","badleft",1,481
17,"test.sc_dark.Darkgood","goodright",1,496
17,"test.sc_dark.Darkgood","badleft",1,498
17,"test.sc_dark.Darkgood","goodright",1,356
17,"test.sc_dark.Darkgood","badleft",1,499
17,"test.sc_dark.Darkgood","badleft",0,421
17,"test.sc_dark.Darkgood","badleft",1,710
17,"test.sc_dark.Darkgood","badleft",1,490
17,"test.sc_dark.Darkgood","badleft",1,468
17,"test.sc_dark.Darkgood","badleft",1,576
17,"test.sc_dark.Darkgood","goodright",1,1258
17,"test.sc_dark.Darkgood","darkright",1,394
17,"test.sc_dark.Darkgood","badleft",1,535
17,"test.sc_dark.Darkgood","darkright",1,496
17,"test.sc_dark.Darkgood","badleft",1,562
17,"test.sc_dark.Darkgood","goodright",1,449
17,"test.sc_dark.Darkgood","darkright",1,475
17,"test.sc_dark.Darkgood","badleft",1,471
17,"test.sc_dark.Darkgood","badleft",1,587
17,"test.sc_dark.Darkgood","darkright",1,424
17,"test.sc_dark.Darkgood","goodright",1,388
17,"test.sc_dark.Darkgood","goodright",1,401
17,"test.sc_dark.Darkgood","goodright",1,504
17,"test.sc_dark.Darkgood","goodright",1,452
17,"test.sc_dark.Darkgood","badleft",0,350
17,"test.sc_dark.Darkgood","darkright",1,506
17,"test.sc_dark.Darkgood","goodright",1,487
17,"test.sc_dark.Darkgood","badleft",1,446
17,"test.sc_dark.Darkgood","badleft",1,373
17,"test.sc_dark.Darkgood","darkright",1,407
17,"test.sc_dark.Darkgood","badleft",1,478
17,"test.sc_dark.Darkgood","darkright",1,421
17,"test.sc_dark.Darkgood","badleft",1,527
17,"test.sc_dark.Darkgood","goodright",1,526
17,"test.sc_dark.Darkgood","badleft",1,349
17,"test.sc_dark.Darkgood","goodright",1,465
17,"test.sc_dark.Darkgood","goodright",1,621
17,"test.sc_dark.Darkgood","badleft",1,599
17,"test.sc_dark.Darkgood","darkright",1,454
17,"test.sc_dark.Darkgood","badleft",1,472
17,"test.sc_dark.Darkgood","badleft",1,484
17,"test.sc_dark.Darkgood","darkright",1,549
17,"test.sc_dark.Darkgood","badleft",1,514
17,"test.sc_dark.Darkgood","darkright",1,409
17,"test.sc_dark.Darkgood","goodright",1,499
17,"test.sc_dark.Darkgood","darkright",0,367
17,"test.sc_dark.Darkgood","badleft",1,1526
17,"test.sc_dark.Darkgood","darkright",1,438
17,"test.sc_dark.Darkgood","darkright",1,469
17,"test.sc_dark.Darkgood","goodright",1,762
17,"test.sc_dark.Darkgood","goodright",1,376
17,"test.sc_dark.Darkbad","badleft",1,541
17,"test.sc_dark.Darkbad","goodright",1,511
17,"test.sc_dark.Darkbad","goodright",1,507
17,"test.sc_dark.Darkbad","badleft",1,360
17,"test.sc_dark.Darkbad","badleft",1,463
17,"test.sc_dark.Darkbad","goodright",1,467
17,"test.sc_dark.Darkbad","darkleft",1,351
17,"test.sc_dark.Darkbad","badleft",1,428
17,"test.sc_dark.Darkbad","goodright",1,489
17,"test.sc_dark.Darkbad","goodright",0,295
17,"test.sc_dark.Darkbad","darkleft",1,465
17,"test.sc_dark.Darkbad","darkleft",1,374
17,"test.sc_dark.Darkbad","badleft",1,648
17,"test.sc_dark.Darkbad","goodright",1,487
17,"test.sc_dark.Darkbad","badleft",1,502
17,"test.sc_dark.Darkbad","goodright",1,463
17,"test.sc_dark.Darkbad","goodright",1,524
17,"test.sc_dark.Darkbad","goodright",1,635
17,"test.sc_dark.Darkbad","darkleft",1,425
17,"test.sc_dark.Darkbad","badleft",1,446
17,"test.sc_dark.Darkbad","goodright",1,533
17,"test.sc_dark.Darkbad","goodright",1,559
17,"test.sc_dark.Darkbad","badleft",1,341
17,"test.sc_dark.Darkbad","badleft",1,351
17,"test.sc_dark.Darkbad","goodright",1,452
17,"test.sc_dark.Darkbad","darkleft",1,366
17,"test.sc_dark.Darkbad","darkleft",1,383
17,"test.sc_dark.Darkbad","darkleft",1,332
17,"test.sc_dark.Darkbad","goodright",1,630
17,"test.sc_dark.Darkbad","goodright",0,426
17,"test.sc_dark.Darkbad","badleft",1,478
17,"test.sc_dark.Darkbad","goodright",1,518
17,"test.sc_dark.Darkbad","goodright",1,492
17,"test.sc_dark.Darkbad","darkleft",1,406
17,"test.sc_dark.Darkbad","badleft",1,573
17,"test.sc_dark.Darkbad","darkleft",1,399
17,"test.sc_dark.Darkbad","goodright",1,422
17,"test.sc_dark.Darkbad","badleft",0,503
17,"test.sc_dark.Darkbad","goodright",1,1212
17,"test.sc_dark.Darkbad","badleft",1,669
17,"test.sc_dark.Darkbad","darkleft",1,377
17,"test.sc_dark.Darkbad","goodright",1,491
17,"test.sc_dark.Darkbad","darkleft",1,404
17,"test.sc_dark.Darkbad","goodright",1,523
17,"test.sc_dark.Darkbad","darkleft",1,346
17,"test.sc_dark.Darkbad","darkleft",1,415
17,"test.sc_dark.Darkbad","goodright",1,585
17,"test.sc_dark.Darkbad","goodright",0,485
17,"test.sc_dark.Darkbad","darkleft",1,846
17,"test.sc_dark.Darkbad","goodright",1,925
17,"test.sc_dark.Darkbad","badleft",1,643
17,"test.sc_dark.Darkbad","badleft",1,458
17,"test.sc_dark.Darkbad","darkleft",1,806
17,"test.sc_dark.Darkbad","goodright",1,541
17,"test.sc_dark.Darkbad","badleft",1,423
17,"test.sc_dark.Darkbad","goodright",1,515
17,"test.sc_dark.Darkbad","goodright",1,447
17,"test.sc_dark.Darkbad","goodright",1,422
17,"test.sc_dark.Darkbad","darkleft",1,451
17,"test.sc_dark.Darkbad","badleft",0,453
17,"test.sc_dark.Darkbad","darkleft",1,1366
17,"test.sc_dark.Darkbad","badleft",1,652
17,"test.sc_dark.Darkbad","badleft",1,422
17,"test.sc_dark.Darkbad","darkleft",1,578
17,"test.sc_dark.Darkbad","badleft",1,363
17,"test.sc_dark.Darkbad","badleft",1,403
17,"test.sc_dark.Darkbad","darkleft",1,394
17,"test.sc_dark.Darkbad","goodright",1,494
17,"test.sc_dark.Darkbad","darkleft",1,448
17,"test.sc_dark.Darkbad","goodright",0,455
17,"test.sc_dark.Darkbad","darkleft",1,857
17,"test.sc_dark.Darkbad","goodright",1,562
25,"test.sc_dark.Darkgood","darkright",1,557
25,"test.sc_dark.Darkgood","goodright",1,540
25,"test.sc_dark.Darkgood","goodright",1,422
25,"test.sc_dark.Darkgood","darkright",1,450
25,"test.sc_dark.Darkgood","darkright",1,356
25,"test.sc_dark.Darkgood","badleft",1,507
25,"test.sc_dark.Darkgood","goodright",1,503
25,"test.sc_dark.Darkgood","goodright",1,540
25,"test.sc_dark.Darkgood","darkright",0,696
25,"test.sc_dark.Darkgood","goodright",1,1529
25,"test.sc_dark.Darkgood","badleft",1,591
25,"test.sc_dark.Darkgood","darkright",1,510
25,"test.sc_dark.Darkgood","badleft",1,666
25,"test.sc_dark.Darkgood","goodright",1,630
25,"test.sc_dark.Darkgood","badleft",1,706
25,"test.sc_dark.Darkgood","goodright",1,470
25,"test.sc_dark.Darkgood","goodright",1,427
25,"test.sc_dark.Darkgood","badleft",1,519
25,"test.sc_dark.Darkgood","goodright",1,558
25,"test.sc_dark.Darkgood","goodright",1,605
25,"test.sc_dark.Darkgood","goodright",1,492
25,"test.sc_dark.Darkgood","goodright",1,541
25,"test.sc_dark.Darkgood","goodright",1,495
25,"test.sc_dark.Darkgood","darkright",1,441
25,"test.sc_dark.Darkgood","darkright",1,392
25,"test.sc_dark.Darkgood","badleft",1,636
25,"test.sc_dark.Darkgood","badleft",1,603
25,"test.sc_dark.Darkgood","goodright",1,578
25,"test.sc_dark.Darkgood","goodright",1,651
25,"test.sc_dark.Darkgood","darkright",1,629
25,"test.sc_dark.Darkgood","darkright",1,417
25,"test.sc_dark.Darkgood","badleft",1,563
25,"test.sc_dark.Darkgood","badleft",1,490
25,"test.sc_dark.Darkgood","badleft",1,411
25,"test.sc_dark.Darkgood","darkright",0,453
25,"test.sc_dark.Darkgood","darkright",1,623
25,"test.sc_dark.Darkgood","badleft",1,659
25,"test.sc_dark.Darkgood","goodright",1,644
25,"test.sc_dark.Darkgood","badleft",1,683
25,"test.sc_dark.Darkgood","goodright",1,650
25,"test.sc_dark.Darkgood","goodright",1,603
25,"test.sc_dark.Darkgood","goodright",1,410
25,"test.sc_dark.Darkgood","badleft",1,540
25,"test.sc_dark.Darkgood","badleft",1,662
25,"test.sc_dark.Darkgood","darkright",1,441
25,"test.sc_dark.Darkgood","goodright",1,393
25,"test.sc_dark.Darkgood","darkright",1,696
25,"test.sc_dark.Darkgood","badleft",1,577
25,"test.sc_dark.Darkgood","badleft",1,443
25,"test.sc_dark.Darkgood","badleft",1,538
25,"test.sc_dark.Darkgood","badleft",1,411
25,"test.sc_dark.Darkgood","badleft",1,461
25,"test.sc_dark.Darkgood","darkright",1,425
25,"test.sc_dark.Darkgood","badleft",1,574
25,"test.sc_dark.Darkgood","badleft",1,568
25,"test.sc_dark.Darkgood","darkright",1,409
25,"test.sc_dark.Darkgood","darkright",1,523
25,"test.sc_dark.Darkgood","goodright",1,810
25,"test.sc_dark.Darkgood","badleft",1,579
25,"test.sc_dark.Darkgood","badleft",1,533
25,"test.sc_dark.Darkgood","darkright",1,478
25,"test.sc_dark.Darkgood","badleft",1,693
25,"test.sc_dark.Darkgood","badleft",1,1895
25,"test.sc_dark.Darkgood","darkright",1,678
25,"test.sc_dark.Darkgood","darkright",1,365
25,"test.sc_dark.Darkgood","badleft",1,604
25,"test.sc_dark.Darkgood","badleft",1,531
25,"test.sc_dark.Darkgood","darkright",1,388
25,"test.sc_dark.Darkgood","badleft",1,585
25,"test.sc_dark.Darkgood","badleft",1,533
25,"test.sc_dark.Darkgood","darkright",1,415
25,"test.sc_dark.Darkgood","badleft",1,593
25,"test.sc_dark.Darkbad","badleft",1,628
25,"test.sc_dark.Darkbad","badleft",1,480
25,"test.sc_dark.Darkbad","goodright",1,623
25,"test.sc_dark.Darkbad","goodright",1,467
25,"test.sc_dark.Darkbad","goodright",1,456
25,"test.sc_dark.Darkbad","badleft",1,529
25,"test.sc_dark.Darkbad","goodright",1,499
25,"test.sc_dark.Darkbad","darkleft",1,711
25,"test.sc_dark.Darkbad","goodright",1,619
25,"test.sc_dark.Darkbad","goodright",1,501
25,"test.sc_dark.Darkbad","goodright",1,350
25,"test.sc_dark.Darkbad","darkleft",1,674
25,"test.sc_dark.Darkbad","badleft",1,447
25,"test.sc_dark.Darkbad","badleft",1,478
25,"test.sc_dark.Darkbad","badleft",1,469
25,"test.sc_dark.Darkbad","darkleft",1,481
25,"test.sc_dark.Darkbad","badleft",1,657
25,"test.sc_dark.Darkbad","goodright",1,466
25,"test.sc_dark.Darkbad","darkleft",1,406
25,"test.sc_dark.Darkbad","badleft",1,622
25,"test.sc_dark.Darkbad","goodright",1,623
25,"test.sc_dark.Darkbad","darkleft",1,523
25,"test.sc_dark.Darkbad","darkleft",1,434
25,"test.sc_dark.Darkbad","goodright",1,1246
25,"test.sc_dark.Darkbad","goodright",1,388
25,"test.sc_dark.Darkbad","darkleft",1,417
25,"test.sc_dark.Darkbad","goodright",1,475
25,"test.sc_dark.Darkbad","badleft",1,559
25,"test.sc_dark.Darkbad","darkleft",0,414
25,"test.sc_dark.Darkbad","darkleft",1,976
25,"test.sc_dark.Darkbad","goodright",1,1025
25,"test.sc_dark.Darkbad","goodright",1,580
25,"test.sc_dark.Darkbad","badleft",1,526
25,"test.sc_dark.Darkbad","goodright",1,557
25,"test.sc_dark.Darkbad","darkleft",1,443
25,"test.sc_dark.Darkbad","badleft",1,547
25,"test.sc_dark.Darkbad","goodright",0,423
25,"test.sc_dark.Darkbad","goodright",1,675
25,"test.sc_dark.Darkbad","goodright",1,391
25,"test.sc_dark.Darkbad","badleft",1,644
25,"test.sc_dark.Darkbad","darkleft",1,842
25,"test.sc_dark.Darkbad","darkleft",1,393
25,"test.sc_dark.Darkbad","darkleft",1,344
25,"test.sc_dark.Darkbad","badleft",1,517
25,"test.sc_dark.Darkbad","goodright",1,492
25,"test.sc_dark.Darkbad","goodright",1,478
25,"test.sc_dark.Darkbad","goodright",1,485
25,"test.sc_dark.Darkbad","goodright",1,492
25,"test.sc_dark.Darkbad","goodright",1,429
25,"test.sc_dark.Darkbad","goodright",1,490
25,"test.sc_dark.Darkbad","darkleft",1,427
25,"test.sc_dark.Darkbad","goodright",1,776
25,"test.sc_dark.Darkbad","badleft",1,545
25,"test.sc_dark.Darkbad","badleft",1,573
25,"test.sc_dark.Darkbad","darkleft",1,423
25,"test.sc_dark.Darkbad","darkleft",1,443
25,"test.sc_dark.Darkbad","badleft",1,618
25,"test.sc_dark.Darkbad","darkleft",1,494
25,"test.sc_dark.Darkbad","darkleft",1,440
25,"test.sc_dark.Darkbad","darkleft",1,375
25,"test.sc_dark.Darkbad","goodright",1,1433
25,"test.sc_dark.Darkbad","badleft",1,532
25,"test.sc_dark.Darkbad","badleft",1,726
25,"test.sc_dark.Darkbad","badleft",1,444
25,"test.sc_dark.Darkbad","darkleft",1,622
25,"test.sc_dark.Darkbad","goodright",1,615
25,"test.sc_dark.Darkbad","goodright",1,441
25,"test.sc_dark.Darkbad","badleft",1,464
25,"test.sc_dark.Darkbad","badleft",1,484
25,"test.sc_dark.Darkbad","goodright",1,547
25,"test.sc_dark.Darkbad","goodright",1,560
25,"test.sc_dark.Darkbad","darkleft",1,431
30,"test.sc_dark.Darkgood","badleft",1,749
30,"test.sc_dark.Darkgood","darkright",1,705
30,"test.sc_dark.Darkgood","badleft",1,893
30,"test.sc_dark.Darkgood","goodright",1,582
30,"test.sc_dark.Darkgood","badleft",1,599
30,"test.sc_dark.Darkgood","darkright",1,494
30,"test.sc_dark.Darkgood","darkright",1,520
30,"test.sc_dark.Darkgood","darkright",1,391
30,"test.sc_dark.Darkgood","badleft",1,491
30,"test.sc_dark.Darkgood","badleft",1,653
30,"test.sc_dark.Darkgood","badleft",1,542
30,"test.sc_dark.Darkgood","badleft",1,483
30,"test.sc_dark.Darkgood","badleft",1,490
30,"test.sc_dark.Darkgood","goodright",1,707
30,"test.sc_dark.Darkgood","darkright",1,527
30,"test.sc_dark.Darkgood","badleft",1,510
30,"test.sc_dark.Darkgood","darkright",1,514
30,"test.sc_dark.Darkgood","goodright",1,599
30,"test.sc_dark.Darkgood","badleft",1,542
30,"test.sc_dark.Darkgood","badleft",1,671
30,"test.sc_dark.Darkgood","badleft",1,571
30,"test.sc_dark.Darkgood","darkright",1,517
30,"test.sc_dark.Darkgood","badleft",1,676
30,"test.sc_dark.Darkgood","goodright",1,579
30,"test.sc_dark.Darkgood","badleft",1,540
30,"test.sc_dark.Darkgood","badleft",1,558
30,"test.sc_dark.Darkgood","darkright",1,477
30,"test.sc_dark.Darkgood","goodright",1,676
30,"test.sc_dark.Darkgood","goodright",1,591
30,"test.sc_dark.Darkgood","goodright",1,660
30,"test.sc_dark.Darkgood","darkright",1,568
30,"test.sc_dark.Darkgood","goodright",1,455
30,"test.sc_dark.Darkgood","goodright",1,497
30,"test.sc_dark.Darkgood","darkright",1,434
30,"test.sc_dark.Darkgood","goodright",1,415
30,"test.sc_dark.Darkgood","goodright",1,377
30,"test.sc_dark.Darkgood","darkright",1,362
30,"test.sc_dark.Darkgood","goodright",1,402
30,"test.sc_dark.Darkgood","darkright",1,625
30,"test.sc_dark.Darkgood","badleft",0,501
30,"test.sc_dark.Darkgood","badleft",1,551
30,"test.sc_dark.Darkgood","darkright",1,706
30,"test.sc_dark.Darkgood","badleft",1,527
30,"test.sc_dark.Darkgood","badleft",1,654
30,"test.sc_dark.Darkgood","darkright",1,671
30,"test.sc_dark.Darkgood","darkright",1,686
30,"test.sc_dark.Darkgood","goodright",1,1373
30,"test.sc_dark.Darkgood","goodright",1,485
30,"test.sc_dark.Darkgood","goodright",1,444
30,"test.sc_dark.Darkgood","darkright",1,446
30,"test.sc_dark.Darkgood","badleft",0,773
30,"test.sc_dark.Darkgood","goodright",1,734
30,"test.sc_dark.Darkgood","badleft",0,871
30,"test.sc_dark.Darkgood","badleft",1,547
30,"test.sc_dark.Darkgood","darkright",1,567
30,"test.sc_dark.Darkgood","badleft",1,614
30,"test.sc_dark.Darkgood","goodright",1,568
30,"test.sc_dark.Darkgood","badleft",1,567
30,"test.sc_dark.Darkgood","badleft",1,686
30,"test.sc_dark.Darkgood","darkright",1,583
30,"test.sc_dark.Darkgood","badleft",1,699
30,"test.sc_dark.Darkgood","darkright",1,519
30,"test.sc_dark.Darkgood","badleft",1,662
30,"test.sc_dark.Darkgood","badleft",1,575
30,"test.sc_dark.Darkgood","badleft",1,529
30,"test.sc_dark.Darkgood","goodright",1,579
30,"test.sc_dark.Darkgood","goodright",1,1116
30,"test.sc_dark.Darkgood","darkright",1,562
30,"test.sc_dark.Darkgood","badleft",1,721
30,"test.sc_dark.Darkgood","goodright",1,568
30,"test.sc_dark.Darkgood","goodright",1,847
30,"test.sc_dark.Darkgood","darkright",1,456
30,"test.sc_dark.Darkbad","darkleft",1,1832
30,"test.sc_dark.Darkbad","goodright",1,619
30,"test.sc_dark.Darkbad","badleft",1,572
30,"test.sc_dark.Darkbad","badleft",1,438
30,"test.sc_dark.Darkbad","badleft",1,493
30,"test.sc_dark.Darkbad","darkleft",1,470
30,"test.sc_dark.Darkbad","goodright",1,515
30,"test.sc_dark.Darkbad","badleft",1,647
30,"test.sc_dark.Darkbad","goodright",1,558
30,"test.sc_dark.Darkbad","goodright",1,413
30,"test.sc_dark.Darkbad","goodright",1,439
30,"test.sc_dark.Darkbad","badleft",1,566
30,"test.sc_dark.Darkbad","darkleft",1,631
30,"test.sc_dark.Darkbad","goodright",1,603
30,"test.sc_dark.Darkbad","goodright",1,434
30,"test.sc_dark.Darkbad","darkleft",1,657
30,"test.sc_dark.Darkbad","badleft",1,771
30,"test.sc_dark.Darkbad","goodright",1,540
30,"test.sc_dark.Darkbad","goodright",0,790
30,"test.sc_dark.Darkbad","badleft",1,1217
30,"test.sc_dark.Darkbad","goodright",1,522
30,"test.sc_dark.Darkbad","darkleft",1,713
30,"test.sc_dark.Darkbad","darkleft",1,431
30,"test.sc_dark.Darkbad","goodright",1,572
30,"test.sc_dark.Darkbad","goodright",1,646
30,"test.sc_dark.Darkbad","goodright",1,484
30,"test.sc_dark.Darkbad","badleft",0,563
30,"test.sc_dark.Darkbad","darkleft",1,754
30,"test.sc_dark.Darkbad","darkleft",1,665
30,"test.sc_dark.Darkbad","goodright",1,677
30,"test.sc_dark.Darkbad","badleft",0,356
30,"test.sc_dark.Darkbad","darkleft",1,643
30,"test.sc_dark.Darkbad","darkleft",1,746
30,"test.sc_dark.Darkbad","goodright",1,582
30,"test.sc_dark.Darkbad","goodright",1,463
30,"test.sc_dark.Darkbad","goodright",1,596
30,"test.sc_dark.Darkbad","darkleft",1,962
30,"test.sc_dark.Darkbad","badleft",1,465
30,"test.sc_dark.Darkbad","goodright",1,533
30,"test.sc_dark.Darkbad","goodright",1,639
30,"test.sc_dark.Darkbad","goodright",1,526
30,"test.sc_dark.Darkbad","darkleft",1,519
30,"test.sc_dark.Darkbad","darkleft",1,1014
30,"test.sc_dark.Darkbad","badleft",1,631
30,"test.sc_dark.Darkbad","badleft",1,1531
30,"test.sc_dark.Darkbad","badleft",1,739
30,"test.sc_dark.Darkbad","darkleft",1,471
30,"test.sc_dark.Darkbad","darkleft",1,470
30,"test.sc_dark.Darkbad","darkleft",1,586
30,"test.sc_dark.Darkbad","darkleft",1,447
30,"test.sc_dark.Darkbad","badleft",1,622
30,"test.sc_dark.Darkbad","badleft",1,463
30,"test.sc_dark.Darkbad","badleft",1,652
30,"test.sc_dark.Darkbad","goodright",1,581
30,"test.sc_dark.Darkbad","goodright",1,527
30,"test.sc_dark.Darkbad","badleft",1,534
30,"test.sc_dark.Darkbad","goodright",1,551
30,"test.sc_dark.Darkbad","badleft",1,603
30,"test.sc_dark.Darkbad","darkleft",1,634
30,"test.sc_dark.Darkbad","goodright",1,518
30,"test.sc_dark.Darkbad","badleft",1,805
30,"test.sc_dark.Darkbad","goodright",1,516
30,"test.sc_dark.Darkbad","goodright",1,675
30,"test.sc_dark.Darkbad","badleft",1,527
30,"test.sc_dark.Darkbad","goodright",1,614
30,"test.sc_dark.Darkbad","goodright",1,599
30,"test.sc_dark.Darkbad","darkleft",1,598
30,"test.sc_dark.Darkbad","darkleft",1,485
30,"test.sc_dark.Darkbad","darkleft",1,423
30,"test.sc_dark.Darkbad","goodright",1,1083
30,"test.sc_dark.Darkbad","badleft",1,601
30,"test.sc_dark.Darkbad","goodright",1,584
18,"test.sc_dark.Darkgood","darkright",1,1289
18,"test.sc_dark.Darkgood","darkright",1,618
18,"test.sc_dark.Darkgood","darkright",1,502
18,"test.sc_dark.Darkgood","badleft",1,1346
18,"test.sc_dark.Darkgood","badleft",1,1014
18,"test.sc_dark.Darkgood","darkright",1,710
18,"test.sc_dark.Darkgood","darkright",1,906
18,"test.sc_dark.Darkgood","goodright",1,926
18,"test.sc_dark.Darkgood","goodright",1,1252
18,"test.sc_dark.Darkgood","goodright",1,581
18,"test.sc_dark.Darkgood","badleft",1,783
18,"test.sc_dark.Darkgood","goodright",1,599
18,"test.sc_dark.Darkgood","goodright",1,671
18,"test.sc_dark.Darkgood","darkright",1,706
18,"test.sc_dark.Darkgood","badleft",1,807
18,"test.sc_dark.Darkgood","darkright",1,776
18,"test.sc_dark.Darkgood","badleft",1,1321
18,"test.sc_dark.Darkgood","goodright",1,599
18,"test.sc_dark.Darkgood","goodright",1,1022
18,"test.sc_dark.Darkgood","goodright",1,463
18,"test.sc_dark.Darkgood","badleft",1,731
18,"test.sc_dark.Darkgood","badleft",0,676
18,"test.sc_dark.Darkgood","goodright",1,987
18,"test.sc_dark.Darkgood","badleft",1,703
18,"test.sc_dark.Darkgood","badleft",1,623
18,"test.sc_dark.Darkgood","badleft",1,820
18,"test.sc_dark.Darkgood","goodright",1,1125
18,"test.sc_dark.Darkgood","darkright",1,926
18,"test.sc_dark.Darkgood","darkright",1,423
18,"test.sc_dark.Darkgood","badleft",1,1035
18,"test.sc_dark.Darkgood","badleft",1,679
18,"test.sc_dark.Darkgood","badleft",1,574
18,"test.sc_dark.Darkgood","badleft",1,551
18,"test.sc_dark.Darkgood","badleft",1,619
18,"test.sc_dark.Darkgood","goodright",1,653
18,"test.sc_dark.Darkgood","darkright",1,566
18,"test.sc_dark.Darkgood","darkright",1,448
18,"test.sc_dark.Darkgood","badleft",1,2071
18,"test.sc_dark.Darkgood","badleft",1,585
18,"test.sc_dark.Darkgood","badleft",1,469
18,"test.sc_dark.Darkgood","darkright",1,497
18,"test.sc_dark.Darkgood","goodright",1,875
18,"test.sc_dark.Darkgood","badleft",1,631
18,"test.sc_dark.Darkgood","goodright",1,659
18,"test.sc_dark.Darkgood","darkright",1,607
18,"test.sc_dark.Darkgood","badleft",1,718
18,"test.sc_dark.Darkgood","badleft",1,780
18,"test.sc_dark.Darkgood","goodright",1,574
18,"test.sc_dark.Darkgood","goodright",1,599
18,"test.sc_dark.Darkgood","badleft",1,670
18,"test.sc_dark.Darkgood","darkright",1,562
18,"test.sc_dark.Darkgood","badleft",1,2849
18,"test.sc_dark.Darkgood","darkright",1,727
18,"test.sc_dark.Darkgood","goodright",1,686
18,"test.sc_dark.Darkgood","badleft",1,661
18,"test.sc_dark.Darkgood","darkright",1,505
18,"test.sc_dark.Darkgood","goodright",1,837
18,"test.sc_dark.Darkgood","darkright",1,427
18,"test.sc_dark.Darkgood","goodright",1,520
18,"test.sc_dark.Darkgood","badleft",1,647
18,"test.sc_dark.Darkgood","goodright",1,502
18,"test.sc_dark.Darkgood","darkright",1,514
18,"test.sc_dark.Darkgood","badleft",1,558
18,"test.sc_dark.Darkgood","badleft",1,589
18,"test.sc_dark.Darkgood","darkright",1,473
18,"test.sc_dark.Darkgood","darkright",1,472
18,"test.sc_dark.Darkgood","darkright",1,511
18,"test.sc_dark.Darkgood","goodright",1,556
18,"test.sc_dark.Darkgood","badleft",1,683
18,"test.sc_dark.Darkgood","goodright",1,521
18,"test.sc_dark.Darkgood","badleft",1,584
18,"test.sc_dark.Darkgood","badleft",0,508
18,"test.sc_dark.Darkbad","badleft",1,733
18,"test.sc_dark.Darkbad","badleft",1,678
18,"test.sc_dark.Darkbad","darkleft",1,660
18,"test.sc_dark.Darkbad","badleft",1,1206
18,"test.sc_dark.Darkbad","darkleft",1,1679
18,"test.sc_dark.Darkbad","goodright",1,628
18,"test.sc_dark.Darkbad","goodright",1,560
18,"test.sc_dark.Darkbad","goodright",1,471
18,"test.sc_dark.Darkbad","goodright",1,539
18,"test.sc_dark.Darkbad","goodright",1,453
18,"test.sc_dark.Darkbad","darkleft",1,567
18,"test.sc_dark.Darkbad","badleft",1,806
18,"test.sc_dark.Darkbad","goodright",1,636
18,"test.sc_dark.Darkbad","badleft",1,667
18,"test.sc_dark.Darkbad","badleft",1,743
18,"test.sc_dark.Darkbad","badleft",1,835
18,"test.sc_dark.Darkbad","badleft",1,687
18,"test.sc_dark.Darkbad","goodright",1,597
18,"test.sc_dark.Darkbad","darkleft",1,556
18,"test.sc_dark.Darkbad","goodright",1,747
18,"test.sc_dark.Darkbad","badleft",1,1127
18,"test.sc_dark.Darkbad","darkleft",1,1232
18,"test.sc_dark.Darkbad","badleft",1,595
18,"test.sc_dark.Darkbad","darkleft",1,626
18,"test.sc_dark.Darkbad","badleft",1,598
18,"test.sc_dark.Darkbad","goodright",1,677
18,"test.sc_dark.Darkbad","goodright",1,532
18,"test.sc_dark.Darkbad","darkleft",1,597
18,"test.sc_dark.Darkbad","goodright",1,676
18,"test.sc_dark.Darkbad","badleft",1,723
18,"test.sc_dark.Darkbad","goodright",1,817
18,"test.sc_dark.Darkbad","darkleft",1,554
18,"test.sc_dark.Darkbad","darkleft",1,537
18,"test.sc_dark.Darkbad","goodright",1,483
18,"test.sc_dark.Darkbad","goodright",1,842
18,"test.sc_dark.Darkbad","darkleft",1,545
18,"test.sc_dark.Darkbad","darkleft",1,701
18,"test.sc_dark.Darkbad","badleft",0,518
18,"test.sc_dark.Darkbad","goodright",1,957
18,"test.sc_dark.Darkbad","darkleft",1,899
18,"test.sc_dark.Darkbad","badleft",1,1221
18,"test.sc_dark.Darkbad","goodright",1,621
18,"test.sc_dark.Darkbad","darkleft",1,545
18,"test.sc_dark.Darkbad","goodright",1,773
18,"test.sc_dark.Darkbad","goodright",1,751
18,"test.sc_dark.Darkbad","darkleft",1,594
18,"test.sc_dark.Darkbad","goodright",1,695
18,"test.sc_dark.Darkbad","goodright",1,792
18,"test.sc_dark.Darkbad","goodright",1,604
18,"test.sc_dark.Darkbad","badleft",1,835
18,"test.sc_dark.Darkbad","goodright",1,671
18,"test.sc_dark.Darkbad","darkleft",1,562
18,"test.sc_dark.Darkbad","goodright",1,874
18,"test.sc_dark.Darkbad","goodright",1,518
18,"test.sc_dark.Darkbad","badleft",1,580
18,"test.sc_dark.Darkbad","badleft",1,622
18,"test.sc_dark.Darkbad","darkleft",1,666
18,"test.sc_dark.Darkbad","darkleft",1,382
18,"test.sc_dark.Darkbad","darkleft",1,459
18,"test.sc_dark.Darkbad","badleft",1,620
18,"test.sc_dark.Darkbad","goodright",1,518
18,"test.sc_dark.Darkbad","darkleft",1,533
18,"test.sc_dark.Darkbad","goodright",1,711
18,"test.sc_dark.Darkbad","badleft",1,547
18,"test.sc_dark.Darkbad","goodright",1,1223
18,"test.sc_dark.Darkbad","badleft",1,647
18,"test.sc_dark.Darkbad","goodright",1,630
18,"test.sc_dark.Darkbad","badleft",1,1202
18,"test.sc_dark.Darkbad","goodright",1,560
18,"test.sc_dark.Darkbad","goodright",1,671
18,"test.sc_dark.Darkbad","darkleft",1,654
18,"test.sc_dark.Darkbad","darkleft",1,623
21,"test.sc_dark.Darkbad","badleft",1,950
21,"test.sc_dark.Darkbad","goodright",1,794
21,"test.sc_dark.Darkbad","darkleft",1,465
21,"test.sc_dark.Darkbad","goodright",1,821
21,"test.sc_dark.Darkbad","goodright",1,1062
21,"test.sc_dark.Darkbad","badleft",1,751
21,"test.sc_dark.Darkbad","badleft",1,819
21,"test.sc_dark.Darkbad","badleft",1,612
21,"test.sc_dark.Darkbad","darkleft",1,461
21,"test.sc_dark.Darkbad","badleft",1,479
21,"test.sc_dark.Darkbad","goodright",1,582
21,"test.sc_dark.Darkbad","badleft",1,547
21,"test.sc_dark.Darkbad","badleft",0,567
21,"test.sc_dark.Darkbad","darkleft",1,656
21,"test.sc_dark.Darkbad","badleft",1,602
21,"test.sc_dark.Darkbad","goodright",0,1025
21,"test.sc_dark.Darkbad","goodright",1,1236
21,"test.sc_dark.Darkbad","badleft",1,695
21,"test.sc_dark.Darkbad","darkleft",1,873
21,"test.sc_dark.Darkbad","badleft",1,1116
21,"test.sc_dark.Darkbad","goodright",1,834
21,"test.sc_dark.Darkbad","badleft",1,526
21,"test.sc_dark.Darkbad","darkleft",1,800
21,"test.sc_dark.Darkbad","goodright",1,622
21,"test.sc_dark.Darkbad","badleft",1,715
21,"test.sc_dark.Darkbad","darkleft",1,673
21,"test.sc_dark.Darkbad","darkleft",1,480
21,"test.sc_dark.Darkbad","badleft",1,567
21,"test.sc_dark.Darkbad","darkleft",1,616
21,"test.sc_dark.Darkbad","goodright",0,722
21,"test.sc_dark.Darkbad","goodright",1,713
21,"test.sc_dark.Darkbad","badleft",1,829
21,"test.sc_dark.Darkbad","darkleft",1,840
21,"test.sc_dark.Darkbad","goodright",1,815
21,"test.sc_dark.Darkbad","goodright",1,456
21,"test.sc_dark.Darkbad","goodright",1,458
21,"test.sc_dark.Darkbad","badleft",0,636
21,"test.sc_dark.Darkbad","goodright",1,923
21,"test.sc_dark.Darkbad","badleft",1,729
21,"test.sc_dark.Darkbad","goodright",1,1167
21,"test.sc_dark.Darkbad","goodright",0,837
21,"test.sc_dark.Darkbad","darkleft",1,1188
21,"test.sc_dark.Darkbad","darkleft",1,1103
21,"test.sc_dark.Darkbad","goodright",1,595
21,"test.sc_dark.Darkbad","badleft",1,919
21,"test.sc_dark.Darkbad","goodright",1,701
21,"test.sc_dark.Darkbad","darkleft",1,833
21,"test.sc_dark.Darkbad","goodright",1,917
21,"test.sc_dark.Darkbad","darkleft",1,715
21,"test.sc_dark.Darkbad","goodright",1,631
21,"test.sc_dark.Darkbad","goodright",1,587
21,"test.sc_dark.Darkbad","goodright",1,488
21,"test.sc_dark.Darkbad","goodright",1,663
21,"test.sc_dark.Darkbad","badleft",1,667
21,"test.sc_dark.Darkbad","darkleft",1,703
21,"test.sc_dark.Darkbad","goodright",1,603
21,"test.sc_dark.Darkbad","darkleft",1,561
21,"test.sc_dark.Darkbad","darkleft",1,448
21,"test.sc_dark.Darkbad","badleft",1,778
21,"test.sc_dark.Darkbad","darkleft",1,1022
21,"test.sc_dark.Darkbad","goodright",1,543
21,"test.sc_dark.Darkbad","goodright",1,419
21,"test.sc_dark.Darkbad","goodright",1,541
21,"test.sc_dark.Darkbad","badleft",1,542
21,"test.sc_dark.Darkbad","darkleft",1,547
21,"test.sc_dark.Darkbad","goodright",1,735
21,"test.sc_dark.Darkbad","goodright",1,576
21,"test.sc_dark.Darkbad","goodright",1,674
21,"test.sc_dark.Darkbad","darkleft",1,553
21,"test.sc_dark.Darkbad","badleft",0,709
21,"test.sc_dark.Darkbad","darkleft",1,1345
21,"test.sc_dark.Darkbad","darkleft",1,500
21,"test.sc_dark.Darkgood","goodright",1,519
21,"test.sc_dark.Darkgood","goodright",1,438
21,"test.sc_dark.Darkgood","goodright",1,453
21,"test.sc_dark.Darkgood","badleft",0,414
21,"test.sc_dark.Darkgood","badleft",1,696
21,"test.sc_dark.Darkgood","darkright",1,530
21,"test.sc_dark.Darkgood","badleft",1,739
21,"test.sc_dark.Darkgood","darkright",1,535
21,"test.sc_dark.Darkgood","darkright",1,385
21,"test.sc_dark.Darkgood","badleft",1,661
21,"test.sc_dark.Darkgood","goodright",1,559
21,"test.sc_dark.Darkgood","goodright",1,702
21,"test.sc_dark.Darkgood","goodright",1,679
21,"test.sc_dark.Darkgood","badleft",1,590
21,"test.sc_dark.Darkgood","goodright",1,690
21,"test.sc_dark.Darkgood","darkright",1,907
21,"test.sc_dark.Darkgood","goodright",1,599
21,"test.sc_dark.Darkgood","goodright",1,510
21,"test.sc_dark.Darkgood","badleft",1,722
21,"test.sc_dark.Darkgood","darkright",1,529
21,"test.sc_dark.Darkgood","goodright",0,890
21,"test.sc_dark.Darkgood","badleft",1,843
21,"test.sc_dark.Darkgood","badleft",1,634
21,"test.sc_dark.Darkgood","badleft",1,822
21,"test.sc_dark.Darkgood","badleft",1,1007
21,"test.sc_dark.Darkgood","darkright",1,744
21,"test.sc_dark.Darkgood","goodright",1,580
21,"test.sc_dark.Darkgood","badleft",1,654
21,"test.sc_dark.Darkgood","darkright",1,567
21,"test.sc_dark.Darkgood","badleft",1,590
21,"test.sc_dark.Darkgood","darkright",1,826
21,"test.sc_dark.Darkgood","darkright",1,398
21,"test.sc_dark.Darkgood","darkright",1,341
21,"test.sc_dark.Darkgood","darkright",1,298
21,"test.sc_dark.Darkgood","goodright",1,628
21,"test.sc_dark.Darkgood","darkright",1,384
21,"test.sc_dark.Darkgood","goodright",1,756
21,"test.sc_dark.Darkgood","goodright",1,731
21,"test.sc_dark.Darkgood","badleft",1,740
21,"test.sc_dark.Darkgood","badleft",1,477
21,"test.sc_dark.Darkgood","darkright",1,444
21,"test.sc_dark.Darkgood","badleft",1,812
21,"test.sc_dark.Darkgood","badleft",1,653
21,"test.sc_dark.Darkgood","badleft",1,590
21,"test.sc_dark.Darkgood","badleft",1,650
21,"test.sc_dark.Darkgood","darkright",1,404
21,"test.sc_dark.Darkgood","darkright",1,358
21,"test.sc_dark.Darkgood","darkright",1,285
21,"test.sc_dark.Darkgood","badleft",1,732
21,"test.sc_dark.Darkgood","badleft",0,677
21,"test.sc_dark.Darkgood","goodright",1,572
21,"test.sc_dark.Darkgood","darkright",0,470
21,"test.sc_dark.Darkgood","darkright",1,522
21,"test.sc_dark.Darkgood","badleft",1,1313
21,"test.sc_dark.Darkgood","badleft",1,1188
21,"test.sc_dark.Darkgood","goodright",1,663
21,"test.sc_dark.Darkgood","badleft",0,867
21,"test.sc_dark.Darkgood","goodright",1,1279
21,"test.sc_dark.Darkgood","badleft",1,965
21,"test.sc_dark.Darkgood","badleft",1,627
21,"test.sc_dark.Darkgood","badleft",0,679
21,"test.sc_dark.Darkgood","darkright",1,862
21,"test.sc_dark.Darkgood","goodright",1,1199
21,"test.sc_dark.Darkgood","goodright",1,477
21,"test.sc_dark.Darkgood","darkright",0,612
21,"test.sc_dark.Darkgood","goodright",1,1974
21,"test.sc_dark.Darkgood","darkright",0,461
21,"test.sc_dark.Darkgood","badleft",1,2343
21,"test.sc_dark.Darkgood","badleft",1,638
21,"test.sc_dark.Darkgood","badleft",1,1189
21,"test.sc_dark.Darkgood","goodright",1,1184
21,"test.sc_dark.Darkgood","badleft",1,587
26,"test.sc_dark.Darkgood","goodright",1,1003
26,"test.sc_dark.Darkgood","darkright",1,529
26,"test.sc_dark.Darkgood","goodright",1,603
26,"test.sc_dark.Darkgood","goodright",1,569
26,"test.sc_dark.Darkgood","darkright",1,499
26,"test.sc_dark.Darkgood","badleft",1,661
26,"test.sc_dark.Darkgood","goodright",1,534
26,"test.sc_dark.Darkgood","darkright",1,568
26,"test.sc_dark.Darkgood","badleft",1,711
26,"test.sc_dark.Darkgood","badleft",1,547
26,"test.sc_dark.Darkgood","badleft",1,639
26,"test.sc_dark.Darkgood","goodright",1,702
26,"test.sc_dark.Darkgood","goodright",1,543
26,"test.sc_dark.Darkgood","darkright",1,843
26,"test.sc_dark.Darkgood","badleft",1,690
26,"test.sc_dark.Darkgood","darkright",1,619
26,"test.sc_dark.Darkgood","badleft",1,557
26,"test.sc_dark.Darkgood","badleft",1,547
26,"test.sc_dark.Darkgood","badleft",1,568
26,"test.sc_dark.Darkgood","goodright",1,679
26,"test.sc_dark.Darkgood","darkright",1,469
26,"test.sc_dark.Darkgood","badleft",1,521
26,"test.sc_dark.Darkgood","goodright",1,497
26,"test.sc_dark.Darkgood","badleft",1,794
26,"test.sc_dark.Darkgood","darkright",1,569
26,"test.sc_dark.Darkgood","goodright",1,1018
26,"test.sc_dark.Darkgood","darkright",1,478
26,"test.sc_dark.Darkgood","darkright",1,437
26,"test.sc_dark.Darkgood","badleft",1,700
26,"test.sc_dark.Darkgood","badleft",1,493
26,"test.sc_dark.Darkgood","goodright",1,551
26,"test.sc_dark.Darkgood","darkright",1,470
26,"test.sc_dark.Darkgood","goodright",1,706
26,"test.sc_dark.Darkgood","goodright",1,750
26,"test.sc_dark.Darkgood","badleft",1,1018
26,"test.sc_dark.Darkgood","darkright",1,910
26,"test.sc_dark.Darkgood","badleft",1,962
26,"test.sc_dark.Darkgood","badleft",1,728
26,"test.sc_dark.Darkgood","darkright",0,497
26,"test.sc_dark.Darkgood","badleft",1,963
26,"test.sc_dark.Darkgood","badleft",1,609
26,"test.sc_dark.Darkgood","badleft",1,595
26,"test.sc_dark.Darkgood","badleft",1,703
26,"test.sc_dark.Darkgood","goodright",1,707
26,"test.sc_dark.Darkgood","darkright",1,527
26,"test.sc_dark.Darkgood","darkright",1,488
26,"test.sc_dark.Darkgood","badleft",1,1079
26,"test.sc_dark.Darkgood","badleft",1,678
26,"test.sc_dark.Darkgood","goodright",1,748
26,"test.sc_dark.Darkgood","goodright",1,728
26,"test.sc_dark.Darkgood","darkright",1,593
26,"test.sc_dark.Darkgood","darkright",1,464
26,"test.sc_dark.Darkgood","goodright",0,877
26,"test.sc_dark.Darkgood","darkright",0,1115
26,"test.sc_dark.Darkgood","badleft",1,927
26,"test.sc_dark.Darkgood","badleft",1,629
26,"test.sc_dark.Darkgood","goodright",1,561
26,"test.sc_dark.Darkgood","darkright",1,656
26,"test.sc_dark.Darkgood","goodright",1,729
26,"test.sc_dark.Darkgood","badleft",1,611
26,"test.sc_dark.Darkgood","goodright",1,1516
26,"test.sc_dark.Darkgood","badleft",1,767
26,"test.sc_dark.Darkgood","badleft",1,694
26,"test.sc_dark.Darkgood","darkright",1,583
26,"test.sc_dark.Darkgood","goodright",1,771
26,"test.sc_dark.Darkgood","badleft",1,580
26,"test.sc_dark.Darkgood","darkright",1,512
26,"test.sc_dark.Darkgood","badleft",1,1117
26,"test.sc_dark.Darkgood","badleft",1,707
26,"test.sc_dark.Darkgood","badleft",1,623
26,"test.sc_dark.Darkgood","darkright",1,603
26,"test.sc_dark.Darkgood","goodright",1,650
26,"test.sc_dark.Darkbad","badleft",1,939
26,"test.sc_dark.Darkbad","darkleft",1,711
26,"test.sc_dark.Darkbad","badleft",1,651
26,"test.sc_dark.Darkbad","goodright",1,564
26,"test.sc_dark.Darkbad","goodright",1,685
26,"test.sc_dark.Darkbad","darkleft",1,653
26,"test.sc_dark.Darkbad","darkleft",1,470
26,"test.sc_dark.Darkbad","badleft",1,859
26,"test.sc_dark.Darkbad","goodright",1,556
26,"test.sc_dark.Darkbad","badleft",1,679
26,"test.sc_dark.Darkbad","goodright",1,887
26,"test.sc_dark.Darkbad","goodright",1,573
26,"test.sc_dark.Darkbad","goodright",1,558
26,"test.sc_dark.Darkbad","darkleft",1,637
26,"test.sc_dark.Darkbad","badleft",1,748
26,"test.sc_dark.Darkbad","badleft",1,1040
26,"test.sc_dark.Darkbad","darkleft",1,1062
26,"test.sc_dark.Darkbad","goodright",1,759
26,"test.sc_dark.Darkbad","darkleft",1,670
26,"test.sc_dark.Darkbad","darkleft",1,538
26,"test.sc_dark.Darkbad","badleft",1,691
26,"test.sc_dark.Darkbad","badleft",1,549
26,"test.sc_dark.Darkbad","goodright",1,569
26,"test.sc_dark.Darkbad","darkleft",1,523
26,"test.sc_dark.Darkbad","goodright",1,802
26,"test.sc_dark.Darkbad","darkleft",1,656
26,"test.sc_dark.Darkbad","goodright",1,690
26,"test.sc_dark.Darkbad","darkleft",1,491
26,"test.sc_dark.Darkbad","darkleft",1,524
26,"test.sc_dark.Darkbad","darkleft",1,518
26,"test.sc_dark.Darkbad","darkleft",1,533
26,"test.sc_dark.Darkbad","badleft",1,487
26,"test.sc_dark.Darkbad","goodright",1,590
26,"test.sc_dark.Darkbad","badleft",1,522
26,"test.sc_dark.Darkbad","darkleft",1,1185
26,"test.sc_dark.Darkbad","goodright",1,684
26,"test.sc_dark.Darkbad","badleft",1,571
26,"test.sc_dark.Darkbad","darkleft",0,484
26,"test.sc_dark.Darkbad","darkleft",1,734
26,"test.sc_dark.Darkbad","goodright",1,903
26,"test.sc_dark.Darkbad","darkleft",1,595
26,"test.sc_dark.Darkbad","goodright",1,999
26,"test.sc_dark.Darkbad","badleft",1,1406
26,"test.sc_dark.Darkbad","goodright",1,739
26,"test.sc_dark.Darkbad","badleft",1,557
26,"test.sc_dark.Darkbad","darkleft",1,539
26,"test.sc_dark.Darkbad","goodright",1,693
26,"test.sc_dark.Darkbad","goodright",1,566
26,"test.sc_dark.Darkbad","darkleft",1,472
26,"test.sc_dark.Darkbad","badleft",1,500
26,"test.sc_dark.Darkbad","goodright",1,574
26,"test.sc_dark.Darkbad","goodright",1,743
26,"test.sc_dark.Darkbad","badleft",1,564
26,"test.sc_dark.Darkbad","darkleft",1,754
26,"test.sc_dark.Darkbad","goodright",1,774
26,"test.sc_dark.Darkbad","goodright",1,832
26,"test.sc_dark.Darkbad","goodright",1,539
26,"test.sc_dark.Darkbad","goodright",1,557
26,"test.sc_dark.Darkbad","goodright",1,1012
26,"test.sc_dark.Darkbad","badleft",1,965
